Time,header.seq,header.stamp.secs,header.stamp.nsecs,header.frame_id,orientation.x,orientation.y,orientation.z,orientation.w,orientation_covariance_0,orientation_covariance_1,orientation_covariance_2,orientation_covariance_3,orientation_covariance_4,orientation_covariance_5,orientation_covariance_6,orientation_covariance_7,orientation_covariance_8,angular_velocity.x,angular_velocity.y,angular_velocity.z,angular_velocity_covariance_0,angular_velocity_covariance_1,angular_velocity_covariance_2,angular_velocity_covariance_3,angular_velocity_covariance_4,angular_velocity_covariance_5,angular_velocity_covariance_6,angular_velocity_covariance_7,angular_velocity_covariance_8,linear_acceleration.x,linear_acceleration.y,linear_acceleration.z,linear_acceleration_covariance_0,linear_acceleration_covariance_1,linear_acceleration_covariance_2,linear_acceleration_covariance_3,linear_acceleration_covariance_4,linear_acceleration_covariance_5,linear_acceleration_covariance_6,linear_acceleration_covariance_7,linear_acceleration_covariance_8
1704351528.6924734,1444318,1704351528,692224947,base_link,0.05206130948988531,-0.006950652233267677,-0.9327127836808892,-0.35677467909869565,0.25,0.0,0.0,0.0,0.25,0.0,0.0,0.0,0.25,-0.012310440971185764,-0.0009894268048424842,0.15718745741412424,0.00010000000000000002,0.0,0.0,0.0,0.00010000000000000002,0.0,0.0,0.0,0.0001,-1.261289752004883,0.09466929317512991,9.86989349192716,0.0036000000000000003,5.293955920339377e-23,0.0,-5.293955920339377e-23,0.0036000000000000003,0.0,0.0,0.0,0.0036
1704351528.7411196,1444319,1704351528,740560748,base_link,0.056025143023417975,-0.006888875465475485,-0.9330201168013447,-0.3553690875526907,0.25,0.0,0.0,0.0,0.25,0.0,0.0,0.0,0.25,-0.012837343231531335,0.030501350465685858,0.1821753652901197,0.00010000000000000002,0.0,0.0,0.0,0.00010000000000000002,0.0,0.0,0.0,0.0001,-1.295760878255742,-0.003867590804501974,9.9069653876142,0.0036000000000000003,5.293955920339377e-23,0.0,-5.293955920339377e-23,0.0036000000000000003,0.0,0.0,0.0,0.0036
1704351528.8045764,1444320,1704351528,804236348,base_link,0.060678668968183185,-0.006662132229445436,-0.9337103122649623,-0.3527871424761306,0.25,0.0,0.0,0.0,0.25,0.0,0.0,0.0,0.25,-0.005891263238108552,0.017944258886678867,0.20946409454513235,0.00010000000000000002,0.0,0.0,0.0,0.00010000000000000002,0.0,0.0,0.0,0.0001,-1.2148996408516821,-0.04904192690367686,9.95475771294626,0.0036000000000000003,5.293955920339377e-23,0.0,-5.293955920339377e-23,0.0036000000000000003,0.0,0.0,0.0,0.0036
1704351528.8525326,1444321,1704351528,852242724,base_link,0.06370737972254666,-0.00638894355877171,-0.9346743875918806,-0.3496917790695586,0.25,0.0,0.0,0.0,0.25,0.0,0.0,0.0,0.25,-0.002334107189024821,-0.012402878605232117,0.25424097044085464,0.00010000000000000002,0.0,0.0,0.0,0.00010000000000000002,0.0,0.0,0.0,0.0001,-1.3554493086081714,-0.10307962893802813,9.72911449562712,0.0036000000000000003,5.293955920339377e-23,0.0,-5.293955920339377e-23,0.0036000000000000003,0.0,0.0,0.0,0.0036
1704351528.9165745,1444322,1704351528,916231910,base_link,0.06553341113095626,-0.004793514598449293,-0.9360687273847056,-0.34562657863033813,0.25,0.0,0.0,0.0,0.25,0.0,0.0,0.0,0.25,-0.021183282112205763,-0.06647305962113659,0.2655807436519257,0.00010000000000000002,0.0,0.0,0.0,0.00010000000000000002,0.0,0.0,0.0,0.0001,-1.0715599079551241,0.03682108347250388,9.789615430857241,0.0036000000000000003,5.293955920339377e-23,0.0,-5.293955920339377e-23,0.0036000000000000003,0.0,0.0,0.0,0.0036
1704351528.9645367,1444323,1704351528,964240032,base_link,0.0649069145491099,-0.003649815961842483,-0.9367462468147714,-0.34391894447034915,0.25,0.0,0.0,0.0,0.25,0.0,0.0,0.0,0.25,-0.01252153093855615,-0.07969259620475565,0.2288872773891368,0.00010000000000000002,0.0,0.0,0.0,0.00010000000000000002,0.0,0.0,0.0,0.0001,-0.6075690143843292,0.20157242805388473,10.100754182476503,0.0036000000000000003,5.293955920339377e-23,0.0,-5.293955920339377e-23,0.0036000000000000003,0.0,0.0,0.0,0.0036
1704351529.0285084,1444324,1704351529,28234197,base_link,0.06765422640863815,-0.003016371352377724,-0.937505009064071,-0.34131827541561466,0.25,0.0,0.0,0.0,0.25,0.0,0.0,0.0,0.25,-0.003122025171684981,0.0349033810962803,0.23807693084937553,0.00010000000000000002,0.0,0.0,0.0,0.00010000000000000002,0.0,0.0,0.0,0.0001,-0.6129569788494058,0.004928459105475571,9.884344445389395,0.0036000000000000003,5.293955920339377e-23,0.0,-5.293955920339377e-23,0.0036000000000000003,0.0,0.0,0.0,0.0036
1704351529.0765078,1444325,1704351529,76207138,base_link,0.06994453305811797,-0.0015180880637726598,-0.9390212508389959,-0.3366668207244073,0.25,0.0,0.0,0.0,0.25,0.0,0.0,0.0,0.25,0.00039959008346091755,0.06554898360722711,0.34131555228403093,0.00010000000000000002,0.0,0.0,0.0,0.00010000000000000002,0.0,0.0,0.0,0.0001,-0.4723566758088352,-0.38410507207757594,9.70729166963953,0.0036000000000000003,5.293955920339377e-23,0.0,-5.293955920339377e-23,0.0036000000000000003,0.0,0.0,0.0,0.0036
1704351529.1244648,1444326,1704351529,124212313,base_link,0.0684616798945907,0.000792939693465228,-0.9411597618807316,-0.33095418451691694,0.25,0.0,0.0,0.0,0.25,0.0,0.0,0.0,0.25,0.00034984373716591096,-0.039670884445711076,0.38595216281409017,0.00010000000000000002,0.0,0.0,0.0,0.00010000000000000002,0.0,0.0,0.0,0.0001,-0.12614266751909856,-0.34909918547142943,10.057859722900517,0.0036000000000000003,5.293955920339377e-23,0.0,-5.293955920339377e-23,0.0036000000000000003,0.0,0.0,0.0,0.0036
1704351529.1885617,1444327,1704351529,188246953,base_link,0.06544572146553689,0.0032142317272069406,-0.943282607642832,-0.32546036375386556,0.25,0.0,0.0,0.0,0.25,0.0,0.0,0.0,0.25,0.015573446941761214,-0.07223626964410293,0.3258516743878905,0.00010000000000000002,0.0,0.0,0.0,0.00010000000000000002,0.0,0.0,0.0,0.0001,-0.13665732250168017,-0.19299392725978567,10.014925559326972,0.0036000000000000003,5.293955920339377e-23,0.0,-5.293955920339377e-23,0.0036000000000000003,0.0,0.0,0.0,0.0036
1704351529.2364964,1444328,1704351529,236201219,base_link,0.06660713129561747,0.0036106444142643365,-0.9443541820715697,-0.3220956878187266,0.25,0.0,0.0,0.0,0.25,0.0,0.0,0.0,0.25,0.03220425509646347,0.01498137485883783,0.2983582645583484,0.00010000000000000002,0.0,0.0,0.0,0.00010000000000000002,0.0,0.0,0.0,0.0001,-0.4063660565539843,-0.19650358713834537,9.81692788126754,0.0036000000000000003,5.293955920339377e-23,0.0,-5.293955920339377e-23,0.0036000000000000003,0.0,0.0,0.0,0.0036
1704351529.3004997,1444329,1704351529,300189008,base_link,0.07008320679655262,0.004030124318622242,-0.9455655272272252,-0.31777025654171537,0.25,0.0,0.0,0.0,0.25,0.0,0.0,0.0,0.25,0.007978936406645515,0.07526764680227126,0.29223961866437775,0.00010000000000000002,0.0,0.0,0.0,0.00010000000000000002,0.0,0.0,0.0,0.0001,-0.34084180114953566,-0.11486081077887647,9.639332980903262,0.0036000000000000003,5.293955920339377e-23,0.0,-5.293955920339377e-23,0.0036000000000000003,0.0,0.0,0.0,0.0036
1704351529.3484533,1444330,1704351529,348201304,base_link,0.06978398487160817,0.004385853444880892,-0.9469097077364395,-0.3138040234596909,0.25,0.0,0.0,0.0,0.25,0.0,0.0,0.0,0.25,0.001242600683035244,0.015035983145756196,0.32932410355421754,0.00010000000000000002,0.0,0.0,0.0,0.00010000000000000002,0.0,0.0,0.0,0.0001,-0.18798306230449338,0.029264914942085135,10.15933390583108,0.0036000000000000003,5.293955920339377e-23,0.0,-5.293955920339377e-23,0.0036000000000000003,0.0,0.0,0.0,0.0036
1704351529.3964746,1444331,1704351529,396222199,base_link,0.06958802617873955,0.00577181671493997,-0.9484633804741254,-0.30909773315886785,0.25,0.0,0.0,0.0,0.25,0.0,0.0,0.0,0.25,-0.01759473404294962,-0.0374382465049393,0.36113313264071933,0.00010000000000000002,0.0,0.0,0.0,0.00010000000000000002,0.0,0.0,0.0,0.0001,-0.39660990389687506,-0.10522551190690302,9.957843802070776,0.0036000000000000003,5.293955920339377e-23,0.0,-5.293955920339377e-23,0.0036000000000000003,0.0,0.0,0.0,0.0036
1704351529.460431,1444332,1704351529,460175506,base_link,0.07185951944066928,0.007075613122947992,-0.9501988735028467,-0.30316372797320507,0.25,0.0,0.0,0.0,0.25,0.0,0.0,0.0,0.25,-0.02738743206837783,-0.01126893942370472,0.34517483888820566,0.00010000000000000002,0.0,0.0,0.0,0.00010000000000000002,0.0,0.0,0.0,0.0001,-0.6695519435299078,-0.12783959732041955,9.840610433892582,0.0036000000000000003,5.293955920339377e-23,0.0,-5.293955920339377e-23,0.0036000000000000003,0.0,0.0,0.0,0.0036
1704351529.5084558,1444333,1704351529,508208027,base_link,0.07286948831693583,0.006527331350979556,-0.9511288084179687,-0.3000023690161091,0.25,0.0,0.0,0.0,0.25,0.0,0.0,0.0,0.25,-0.000638591935163259,0.02577378052103707,0.30646778981472145,0.00010000000000000002,0.0,0.0,0.0,0.00010000000000000002,0.0,0.0,0.0,0.0001,-0.6103832321475267,-0.08354591822668703,9.82239746531545,0.0036000000000000003,5.293955920339377e-23,0.0,-5.293955920339377e-23,0.0036000000000000003,0.0,0.0,0.0,0.0036
1704351529.57243,1444334,1704351529,572206741,base_link,0.07130602265715154,0.005816396072549563,-0.9527164733355558,-0.29531837413985323,0.25,0.0,0.0,0.0,0.25,0.0,0.0,0.0,0.25,0.00329021379074354,0.015084206453186432,0.3129591118137351,0.00010000000000000002,0.0,0.0,0.0,0.00010000000000000002,0.0,0.0,0.0,0.0001,-0.44618850918955255,-0.07114515649260743,9.986732253069711,0.0036000000000000003,5.293955920339377e-23,0.0,-5.293955920339377e-23,0.0036000000000000003,0.0,0.0,0.0,0.0036
1704351529.6204698,1444335,1704351529,620216959,base_link,0.07101773694386686,0.006940122647422443,-0.9539154216278563,-0.2914681528358794,0.25,0.0,0.0,0.0,0.25,0.0,0.0,0.0,0.25,-0.01908801844365909,0.009356904772382888,0.3283562442350555,0.00010000000000000002,0.0,0.0,0.0,0.00010000000000000002,0.0,0.0,0.0,0.0001,-0.436988348085143,-0.20453176686848676,9.906235348416956,0.0036000000000000003,5.293955920339377e-23,0.0,-5.293955920339377e-23,0.0036000000000000003,0.0,0.0,0.0,0.0036
1704351529.6844273,1444336,1704351529,684207825,base_link,0.07116865182785674,0.006049186868853594,-0.9553737296306263,-0.2866347276009977,0.25,0.0,0.0,0.0,0.25,0.0,0.0,0.0,0.25,0.012137976841880258,0.01606142640042467,0.329105191712613,0.00010000000000000002,0.0,0.0,0.0,0.00010000000000000002,0.0,0.0,0.0,0.0001,-0.5484821741153146,-0.10001268243108047,9.966349619268076,0.0036000000000000003,5.293955920339377e-23,0.0,-5.293955920339377e-23,0.0036000000000000003,0.0,0.0,0.0,0.0036
1704351529.7327695,1444337,1704351529,732194262,base_link,0.07273732736935146,0.00655498306032353,-0.956150241106277,-0.28362480469213364,0.25,0.0,0.0,0.0,0.25,0.0,0.0,0.0,0.25,0.004505885132726277,0.04543200743613772,0.29745844900503793,0.00010000000000000002,0.0,0.0,0.0,0.00010000000000000002,0.0,0.0,0.0,0.0001,-0.618745515438481,-0.2804899543340775,9.699196257112437,0.0036000000000000003,5.293955920339377e-23,0.0,-5.293955920339377e-23,0.0036000000000000003,0.0,0.0,0.0,0.0036
1704351529.7804427,1444338,1704351529,780185818,base_link,0.07151629723404866,0.006087170073147901,-0.9572454892187201,-0.2802310456763218,0.25,0.0,0.0,0.0,0.25,0.0,0.0,0.0,0.25,0.006164351977490863,0.021479378625963344,0.3070736589627145,0.00010000000000000002,0.0,0.0,0.0,0.00010000000000000002,0.0,0.0,0.0,0.0001,-0.44934617183418274,-0.10355461813792287,10.134094210900981,0.0036000000000000003,5.293955920339377e-23,0.0,-5.293955920339377e-23,0.0036000000000000003,0.0,0.0,0.0,0.0036
1704351529.844492,1444339,1704351529,844177737,base_link,0.06936732202817698,0.0058846052309170895,-0.958924222346746,-0.27498705760926956,0.25,0.0,0.0,0.0,0.25,0.0,0.0,0.0,0.25,7.273173011194393e-05,-0.018884138067685775,0.3357003104151125,0.00010000000000000002,0.0,0.0,0.0,0.00010000000000000002,0.0,0.0,0.0,0.0001,-0.4335660725277166,-0.06407618863819106,9.911451488520324,0.0036000000000000003,5.293955920339377e-23,0.0,-5.293955920339377e-23,0.0036000000000000003,0.0,0.0,0.0,0.0036
1704351529.8924844,1444340,1704351529,892194190,base_link,0.06973154407499875,0.005508059525134644,-0.959880593082046,-0.27154450844317124,0.25,0.0,0.0,0.0,0.25,0.0,0.0,0.0,0.25,-0.019085441676429525,-2.0433650243478378e-05,0.3217037344110648,0.00010000000000000002,0.0,0.0,0.0,0.00010000000000000002,0.0,0.0,0.0,0.0001,-0.6199001826327324,-0.044652928436816355,9.85011438386801,0.0036000000000000003,5.293955920339377e-23,0.0,-5.293955920339377e-23,0.0036000000000000003,0.0,0.0,0.0,0.0036
1704351529.9564233,1444341,1704351529,956185917,base_link,0.07229505600823977,0.004143114331619814,-0.9607378318313465,-0.26784151651378485,0.25,0.0,0.0,0.0,0.25,0.0,0.0,0.0,0.25,-0.010824699054927863,0.043876973151869454,0.29097504991026724,0.00010000000000000002,0.0,0.0,0.0,0.00010000000000000002,0.0,0.0,0.0,0.0001,-0.6802679315821082,-0.011563203112117481,9.758634200767604,0.0036000000000000003,5.293955920339377e-23,0.0,-5.293955920339377e-23,0.0036000000000000003,0.0,0.0,0.0,0.0036
1704351530.004463,1444342,1704351530,4182283,base_link,0.07174927485379211,0.0032558795357196402,-0.9616669676066525,-0.2646470937316897,0.25,0.0,0.0,0.0,0.25,0.0,0.0,0.0,0.25,-0.023475849572291596,0.08081354990216207,0.2833869383058181,0.00010000000000000002,0.0,0.0,0.0,0.00010000000000000002,0.0,0.0,0.0,0.0001,-0.558029390317084,-0.06092240477971115,9.812773182049664,0.0036000000000000003,5.293955920339377e-23,0.0,-5.293955920339377e-23,0.0036000000000000003,0.0,0.0,0.0,0.0036
1704351530.0685294,1444343,1704351530,68195797,base_link,0.06943286919660224,0.0034878424069185437,-0.9632993843919846,-0.25927052987274835,0.25,0.0,0.0,0.0,0.25,0.0,0.0,0.0,0.25,-0.005440615337902878,0.04234836468742206,0.3129355428380879,0.00010000000000000002,0.0,0.0,0.0,0.00010000000000000002,0.0,0.0,0.0,0.0001,-0.42813384128517035,-0.13794030747781086,10.092704337971314,0.0036000000000000003,5.293955920339377e-23,0.0,-5.293955920339377e-23,0.0036000000000000003,0.0,0.0,0.0,0.0036
1704351530.1164207,1444344,1704351530,116185816,base_link,0.06945686499908656,0.005247642041890104,-0.964500984101699,-0.25472741867406595,0.25,0.0,0.0,0.0,0.25,0.0,0.0,0.0,0.25,0.0032315579027958597,-0.0008313848032319504,0.34918918804685023,0.00010000000000000002,0.0,0.0,0.0,0.00010000000000000002,0.0,0.0,0.0,0.0001,-0.46453732807697723,-0.3149277570104346,9.866177115551913,0.0036000000000000003,5.293955920339377e-23,0.0,-5.293955920339377e-23,0.0036000000000000003,0.0,0.0,0.0,0.0036
1704351530.1644466,1444345,1704351530,164189368,base_link,0.071149218114119,0.005841805906006912,-0.9654590444378199,-0.2505843083249979,0.25,0.0,0.0,0.0,0.25,0.0,0.0,0.0,0.25,0.020680762136505645,0.006761532873448836,0.33435597998635413,0.00010000000000000002,0.0,0.0,0.0,0.00010000000000000002,0.0,0.0,0.0,0.0001,-0.6229887681245087,-0.26822164544046817,9.944541571386566,0.0036000000000000003,5.293955920339377e-23,0.0,-5.293955920339377e-23,0.0036000000000000003,0.0,0.0,0.0,0.0036
1704351530.2284353,1444346,1704351530,228149374,base_link,0.07347542949262315,0.004646728686118123,-0.9664264186089844,-0.2461701577933526,0.25,0.0,0.0,0.0,0.25,0.0,0.0,0.0,0.25,0.04078881695545308,0.023759003976815886,0.3121967153726727,0.00010000000000000002,0.0,0.0,0.0,0.00010000000000000002,0.0,0.0,0.0,0.0001,-0.6658313640074643,-0.12325486529781804,10.120117838644951,0.0036000000000000003,5.293955920339377e-23,0.0,-5.293955920339377e-23,0.0036000000000000003,0.0,0.0,0.0,0.0036
1704351530.2764065,1444347,1704351530,276157041,base_link,0.07524481673827588,0.0059083378252946135,-0.967047919605313,-0.2431493991051622,0.25,0.0,0.0,0.0,0.25,0.0,0.0,0.0,0.25,-0.014082125014532541,0.016260035006550762,0.2894337787188975,0.00010000000000000002,0.0,0.0,0.0,0.00010000000000000002,0.0,0.0,0.0,0.0001,-0.6223844296296667,-0.20480194071756577,9.669351775425733,0.0036000000000000003,5.293955920339377e-23,0.0,-5.293955920339377e-23,0.0036000000000000003,0.0,0.0,0.0,0.0036
1704351530.3244133,1444348,1704351530,324162834,base_link,0.07407277325404724,0.002989015902488776,-0.9682034981026154,-0.23892734525007425,0.25,0.0,0.0,0.0,0.25,0.0,0.0,0.0,0.25,-0.0006127041750549399,0.011733374604030528,0.32288051871774354,0.00010000000000000002,0.0,0.0,0.0,0.00010000000000000002,0.0,0.0,0.0,0.0001,-0.5929594968892683,0.2311594813353035,10.004098024315814,0.0036000000000000003,5.293955920339377e-23,0.0,-5.293955920339377e-23,0.0036000000000000003,0.0,0.0,0.0,0.0036
1704351530.388449,1444349,1704351530,388158696,base_link,0.07151990299214157,0.00046151237054434366,-0.9698500695938711,-0.2329710990468346,0.25,0.0,0.0,0.0,0.25,0.0,0.0,0.0,0.25,-0.020055252419194092,0.008137591910052677,0.3314106902682946,0.00010000000000000002,0.0,0.0,0.0,0.00010000000000000002,0.0,0.0,0.0,0.0001,-0.604819977557789,0.12337980867906276,9.812144577421614,0.0036000000000000003,5.293955920339377e-23,0.0,-5.293955920339377e-23,0.0036000000000000003,0.0,0.0,0.0,0.0036
1704351530.4364665,1444350,1704351530,436180029,base_link,0.0728479177265851,0.00031346888354629853,-0.9705973244687246,-0.2294208280743343,0.25,0.0,0.0,0.0,0.25,0.0,0.0,0.0,0.25,-0.03823087199068461,0.03508859299050548,0.32699340483672107,0.00010000000000000002,0.0,0.0,0.0,0.00010000000000000002,0.0,0.0,0.0,0.0001,-0.6756547817355625,0.06239767292914959,9.892531568219203,0.0036000000000000003,5.293955920339377e-23,0.0,-5.293955920339377e-23,0.0036000000000000003,0.0,0.0,0.0,0.0036
1704351530.500425,1444351,1704351530,500162707,base_link,0.07597872111721864,0.00274152069162987,-0.9715710767066745,-0.22420829803716533,0.25,0.0,0.0,0.0,0.25,0.0,0.0,0.0,0.25,-0.02269858072378694,0.03903106378815419,0.3204557105452264,0.00010000000000000002,0.0,0.0,0.0,0.00010000000000000002,0.0,0.0,0.0,0.0001,-0.6687927950680621,-0.18750546991792566,9.836187760990175,0.0036000000000000003,5.293955920339377e-23,0.0,-5.293955920339377e-23,0.0036000000000000003,0.0,0.0,0.0,0.0036
1704351530.5485106,1444352,1704351530,548174009,base_link,0.07709046882620069,0.00511094486764602,-0.9723454852471012,-0.2203978111921613,0.25,0.0,0.0,0.0,0.25,0.0,0.0,0.0,0.25,-0.012310401624890121,0.012576293600439969,0.31103750792918844,0.00010000000000000002,0.0,0.0,0.0,0.00010000000000000002,0.0,0.0,0.0,0.0001,-0.7238236958694498,-0.357085473389233,9.888341256196016,0.0036000000000000003,5.293955920339377e-23,0.0,-5.293955920339377e-23,0.0036000000000000003,0.0,0.0,0.0,0.0036
1704351530.6124752,1444353,1704351530,612193400,base_link,0.0773561047924047,0.0063990687569643835,-0.9733574968187314,-0.21575511200702413,0.25,0.0,0.0,0.0,0.25,0.0,0.0,0.0,0.25,0.015217967779258152,-0.0013657460938862219,0.3175826257822217,0.00010000000000000002,0.0,0.0,0.0,0.00010000000000000002,0.0,0.0,0.0,0.0001,-0.7507071708995984,-0.2824037381030301,9.97197250599782,0.0036000000000000003,5.293955920339377e-23,0.0,-5.293955920339377e-23,0.0036000000000000003,0.0,0.0,0.0,0.0036
1704351530.6604214,1444354,1704351530,660185033,base_link,0.0744857791667492,0.006084733050381676,-0.9743918802982101,-0.2120738275566938,0.25,0.0,0.0,0.0,0.25,0.0,0.0,0.0,0.25,0.012577009453632533,-0.028467435366020786,0.31948988188639554,0.00010000000000000002,0.0,0.0,0.0,0.00010000000000000002,0.0,0.0,0.0,0.0001,-0.7265198766111387,-0.20724086160460486,9.854033739218494,0.0036000000000000003,5.293955920339377e-23,0.0,-5.293955920339377e-23,0.0036000000000000003,0.0,0.0,0.0,0.0036
1704351530.7083926,1444355,1704351530,708139168,base_link,0.0728985939375924,0.004755635945342635,-0.9752154796039738,-0.20884910167263948,0.25,0.0,0.0,0.0,0.25,0.0,0.0,0.0,0.25,-0.007294520083656443,-0.00732661775262123,0.30728697816602984,0.00010000000000000002,0.0,0.0,0.0,0.00010000000000000002,0.0,0.0,0.0,0.0001,-0.7755954501189796,-0.10762317480212016,9.997892482801436,0.0036000000000000003,5.293955920339377e-23,0.0,-5.293955920339377e-23,0.0036000000000000003,0.0,0.0,0.0,0.0036
1704351530.7723818,1444356,1704351530,772122617,base_link,0.07116185387972582,0.0012217968608903961,-0.9765267999278348,-0.2032975818536307,0.25,0.0,0.0,0.0,0.25,0.0,0.0,0.0,0.25,-0.02098333651229243,0.010736432194678715,0.313189475248027,0.00010000000000000002,0.0,0.0,0.0,0.00010000000000000002,0.0,0.0,0.0,0.0001,-0.6312482889134088,0.15740375582621896,9.764747041337978,0.0036000000000000003,5.293955920339377e-23,0.0,-5.293955920339377e-23,0.0036000000000000003,0.0,0.0,0.0,0.0036
1704351530.8203988,1444357,1704351530,820140490,base_link,0.0696386663565477,-0.0007031004001577406,-0.9775725184093549,-0.19875093219580184,0.25,0.0,0.0,0.0,0.25,0.0,0.0,0.0,0.25,-0.020441668626733713,0.030341467358199366,0.3338763446740308,0.00010000000000000002,0.0,0.0,0.0,0.00010000000000000002,0.0,0.0,0.0,0.0001,-0.5497317805485007,0.16353824547104126,9.87465170248719,0.0036000000000000003,5.293955920339377e-23,0.0,-5.293955920339377e-23,0.0036000000000000003,0.0,0.0,0.0,0.0036
1704351530.8844297,1444358,1704351530,884144920,base_link,0.06663398683483189,0.001452838398333195,-0.9790494399330019,-0.19240580871158516,0.25,0.0,0.0,0.0,0.25,0.0,0.0,0.0,0.25,-0.04214458038828673,0.01795017234713151,0.3376560027616122,0.00010000000000000002,0.0,0.0,0.0,0.00010000000000000002,0.0,0.0,0.0,0.0001,-0.5264231962769145,-0.09386659284516544,9.947972137129167,0.0036000000000000003,5.293955920339377e-23,0.0,-5.293955920339377e-23,0.0036000000000000003,0.0,0.0,0.0,0.0036
1704351530.932483,1444359,1704351530,932157092,base_link,0.06539336394263506,0.0035628507366385837,-0.9799596416174822,-0.18812260589262092,0.25,0.0,0.0,0.0,0.25,0.0,0.0,0.0,0.25,-0.0035244905218055097,0.013672701360935716,0.32536444906646045,0.00010000000000000002,0.0,0.0,0.0,0.00010000000000000002,0.0,0.0,0.0,0.0001,-0.5220932201448004,-0.23305961926609664,9.968572044070187,0.0036000000000000003,5.293955920339377e-23,0.0,-5.293955920339377e-23,0.0036000000000000003,0.0,0.0,0.0,0.0036
1704351530.9965527,1444360,1704351530,996160348,base_link,0.06659998554871725,0.006653885057831411,-0.9810002430891142,-0.18209527944910248,0.25,0.0,0.0,0.0,0.25,0.0,0.0,0.0,0.25,0.03281469504639084,-0.004681544565937634,0.3137118210063324,0.00010000000000000002,0.0,0.0,0.0,0.00010000000000000002,0.0,0.0,0.0,0.0001,-0.6005611709583333,-0.4634576499771306,10.033444527906518,0.0036000000000000003,5.293955920339377e-23,0.0,-5.293955920339377e-23,0.0036000000000000003,0.0,0.0,0.0,0.0036
1704351531.0444412,1444361,1704351531,44157964,base_link,0.06915702356406188,0.007884178143834835,-0.9815581657207155,-0.1780413242304721,0.25,0.0,0.0,0.0,0.25,0.0,0.0,0.0,0.25,0.03997108331807844,0.015179804194765955,0.3032481612148702,0.00010000000000000002,0.0,0.0,0.0,0.00010000000000000002,0.0,0.0,0.0,0.0001,-0.763173529336811,-0.413640676469962,9.790858483110856,0.0036000000000000003,5.293955920339377e-23,0.0,-5.293955920339377e-23,0.0036000000000000003,0.0,0.0,0.0,0.0036
1704351531.0924735,1444362,1704351531,92153782,base_link,0.06543134247243917,0.004887210883692691,-0.982578210028691,-0.17388190178637492,0.25,0.0,0.0,0.0,0.25,0.0,0.0,0.0,0.25,0.047272431368711204,0.005722385869031631,0.2819542575078964,0.00010000000000000002,0.0,0.0,0.0,0.00010000000000000002,0.0,0.0,0.0,0.0001,-0.5785665170679548,-0.07704325852224612,10.069729136908245,0.0036000000000000003,5.293955920339377e-23,0.0,-5.293955920339377e-23,0.0036000000000000003,0.0,0.0,0.0,0.0036
1704351531.1564443,1444363,1704351531,156151648,base_link,0.06361993031514845,0.0016976634265002727,-0.9834696835370105,-0.16951992204221494,0.25,0.0,0.0,0.0,0.25,0.0,0.0,0.0,0.25,-0.0020054617226443867,0.0049622918341237,0.29711280398505924,0.00010000000000000002,0.0,0.0,0.0,0.00010000000000000002,0.0,0.0,0.0,0.0001,-0.589148583132574,0.02969536001659743,9.722351002184022,0.0036000000000000003,5.293955920339377e-23,0.0,-5.293955920339377e-23,0.0036000000000000003,0.0,0.0,0.0,0.0036
1704351531.2044094,1444364,1704351531,204110493,base_link,0.06437492620673504,-0.001513362655373988,-0.9841891269739179,-0.1650010331957582,0.25,0.0,0.0,0.0,0.25,0.0,0.0,0.0,0.25,-0.01867567751908824,0.01630889253453947,0.3301998840786901,0.00010000000000000002,0.0,0.0,0.0,0.00010000000000000002,0.0,0.0,0.0,0.0001,-0.5952711529932609,0.2891695209380733,10.038120400623681,0.0036000000000000003,5.293955920339377e-23,0.0,-5.293955920339377e-23,0.0036000000000000003,0.0,0.0,0.0,0.0036
1704351531.2684712,1444365,1704351531,268109729,base_link,0.0637005072969874,-0.004464601511775793,-0.9851965441397075,-0.159091426917433,0.25,0.0,0.0,0.0,0.25,0.0,0.0,0.0,0.25,-0.03537868561581257,0.05078525346982389,0.3302914635306752,0.00010000000000000002,0.0,0.0,0.0,0.00010000000000000002,0.0,0.0,0.0,0.0001,-0.5885168441024742,0.1836825328739124,9.805335387430395,0.0036000000000000003,5.293955920339377e-23,0.0,-5.293955920339377e-23,0.0036000000000000003,0.0,0.0,0.0,0.0036
1704351531.31639,1444366,1704351531,316122471,base_link,0.06290244545174857,-0.0026893117665242297,-0.9858524777540997,-0.15534137267487524,0.25,0.0,0.0,0.0,0.25,0.0,0.0,0.0,0.25,-0.048181746303685255,0.04911070065942152,0.31596322410237176,0.00010000000000000002,0.0,0.0,0.0,0.00010000000000000002,0.0,0.0,0.0,0.0001,-0.5801829907020217,0.019336922890188506,9.725376758284833,0.0036000000000000003,5.293955920339377e-23,0.0,-5.293955920339377e-23,0.0036000000000000003,0.0,0.0,0.0,0.0036
1704351531.3803759,1444367,1704351531,380098313,base_link,0.06511549550463348,0.0003672091906495121,-0.9864890973048098,-0.15032996474867422,0.25,0.0,0.0,0.0,0.25,0.0,0.0,0.0,0.25,-0.011816061376319804,0.00890513301990552,0.31097961746499286,0.00010000000000000002,0.0,0.0,0.0,0.00010000000000000002,0.0,0.0,0.0,0.0001,-0.684702069483197,-0.08894907929441986,10.105468735187769,0.0036000000000000003,5.293955920339377e-23,0.0,-5.293955920339377e-23,0.0036000000000000003,0.0,0.0,0.0,0.0036
1704351531.4284365,1444368,1704351531,428174108,base_link,0.06715055029702353,0.00304086459458195,-0.9871164654751772,-0.1451986237025608,0.25,0.0,0.0,0.0,0.25,0.0,0.0,0.0,0.25,0.005026540317927901,-0.03434693784156651,0.3097567271819421,0.00010000000000000002,0.0,0.0,0.0,0.00010000000000000002,0.0,0.0,0.0,0.0001,-0.9113127721123032,-0.38614677185914065,9.922404005424307,0.0036000000000000003,5.293955920339377e-23,0.0,-5.293955920339377e-23,0.0036000000000000003,0.0,0.0,0.0,0.0036
1704351531.4764357,1444369,1704351531,476149029,base_link,0.07008625113284343,0.004462315750498731,-0.987543996693353,-0.140800780307516,0.25,0.0,0.0,0.0,0.25,0.0,0.0,0.0,0.25,0.017550695919696945,-0.026200863862902747,0.2826109597431963,0.00010000000000000002,0.0,0.0,0.0,0.00010000000000000002,0.0,0.0,0.0,0.0001,-1.0223300619051479,-0.33143440718551825,9.713861963344664,0.0036000000000000003,5.293955920339377e-23,0.0,-5.293955920339377e-23,0.0036000000000000003,0.0,0.0,0.0,0.0036
1704351531.5404801,1444370,1704351531,540130470,base_link,0.06685859947099264,-0.00192199611818941,-0.9885302486591243,-0.13540377060344005,0.25,0.0,0.0,0.0,0.25,0.0,0.0,0.0,0.25,0.039894060725547055,-0.018085855403336046,0.2837604133591881,0.00010000000000000002,0.0,0.0,0.0,0.00010000000000000002,0.0,0.0,0.0,0.0001,-0.8108736990111618,0.07138972306935673,10.116351991041865,0.0036000000000000003,5.293955920339377e-23,0.0,-5.293955920339377e-23,0.0036000000000000003,0.0,0.0,0.0,0.0036
1704351531.5887885,1444371,1704351531,588121407,base_link,0.06479697847060659,-0.001251997408075919,-0.9890435237189651,-0.13263744672279687,0.25,0.0,0.0,0.0,0.25,0.0,0.0,0.0,0.25,0.0016084997214004092,-0.035857067145638216,0.2944971137414107,0.00010000000000000002,0.0,0.0,0.0,0.00010000000000000002,0.0,0.0,0.0,0.0001,-0.5806459952287137,0.01761672712306306,9.74621207341855,0.0036000000000000003,5.293955920339377e-23,0.0,-5.293955920339377e-23,0.0036000000000000003,0.0,0.0,0.0,0.0036
1704351531.6523952,1444372,1704351531,652145583,base_link,0.06377084189356055,-0.0026744132503741403,-0.9898388322014463,-0.12706381665930624,0.25,0.0,0.0,0.0,0.25,0.0,0.0,0.0,0.25,-0.020960233209187763,-0.033361122261137244,0.356531223566576,0.00010000000000000002,0.0,0.0,0.0,0.00010000000000000002,0.0,0.0,0.0,0.0001,-0.5973617909651802,0.14295278541499554,9.956612246893414,0.0036000000000000003,5.293955920339377e-23,0.0,-5.293955920339377e-23,0.0036000000000000003,0.0,0.0,0.0,0.0036
1704351531.700469,1444373,1704351531,700154520,base_link,0.06582330672600487,-0.0018607378206739029,-0.9902365598710683,-0.12286327946595353,0.25,0.0,0.0,0.0,0.25,0.0,0.0,0.0,0.25,-0.031439917109012956,-0.003649542955796904,0.34443035220547397,0.00010000000000000002,0.0,0.0,0.0,0.00010000000000000002,0.0,0.0,0.0,0.0001,-0.6463237198454613,0.0982972495856286,9.898380495850338,0.0036000000000000003,5.293955920339377e-23,0.0,-5.293955920339377e-23,0.0036000000000000003,0.0,0.0,0.0,0.0036
1704351531.7484207,1444374,1704351531,748145449,base_link,0.06913642558712646,-0.0004754293135400199,-0.9905295457506077,-0.1186218682161857,0.25,0.0,0.0,0.0,0.25,0.0,0.0,0.0,0.25,-0.02758272873925544,0.013027603091134191,0.3170070500916283,0.00010000000000000002,0.0,0.0,0.0,0.00010000000000000002,0.0,0.0,0.0,0.0001,-0.6174136470002594,0.09497494868977051,9.87297339711936,0.0036000000000000003,5.293955920339377e-23,0.0,-5.293955920339377e-23,0.0036000000000000003,0.0,0.0,0.0,0.0036
1704351531.8123896,1444375,1704351531,812096122,base_link,0.07084080865500665,0.003723914755671512,-0.9910068757140961,-0.11345961649584234,0.25,0.0,0.0,0.0,0.25,0.0,0.0,0.0,0.25,-0.013082461495761673,0.011492600649407138,0.2922885875389216,0.00010000000000000002,0.0,0.0,0.0,0.00010000000000000002,0.0,0.0,0.0,0.0001,-0.5916012894418903,-0.1497773996590521,9.839782778363276,0.0036000000000000003,5.293955920339377e-23,0.0,-5.293955920339377e-23,0.0036000000000000003,0.0,0.0,0.0,0.0036
1704351531.8604326,1444376,1704351531,860117519,base_link,0.07049054377484124,0.006847353870835572,-0.9915112176527214,-0.10903991128074302,0.25,0.0,0.0,0.0,0.25,0.0,0.0,0.0,0.25,0.0023702817641917326,0.017343663632627872,0.3010604076688837,0.00010000000000000002,0.0,0.0,0.0,0.00010000000000000002,0.0,0.0,0.0,0.0001,-0.5839388772503037,-0.2611858975965806,9.807592251369515,0.0036000000000000003,5.293955920339377e-23,0.0,-5.293955920339377e-23,0.0036000000000000003,0.0,0.0,0.0,0.0036
1704351531.924377,1444377,1704351531,924090094,base_link,0.0689470057658684,0.008468469829112578,-0.9921338796282262,-0.1041391391769645,0.25,0.0,0.0,0.0,0.25,0.0,0.0,0.0,0.25,0.03854895392958413,0.025181972523797825,0.2969343389025103,0.00010000000000000002,0.0,0.0,0.0,0.00010000000000000002,0.0,0.0,0.0,0.0001,-0.5526250454726016,-0.22367346945539648,10.084092616507029,0.0036000000000000003,5.293955920339377e-23,0.0,-5.293955920339377e-23,0.0036000000000000003,0.0,0.0,0.0,0.0036
1704351531.9723368,1444378,1704351531,972073298,base_link,0.06607214830040414,0.0076432094524947645,-0.9927600210042415,-0.10001796470580886,0.25,0.0,0.0,0.0,0.25,0.0,0.0,0.0,0.25,0.01942339028458517,0.008223105749865565,0.31460168299506874,0.00010000000000000002,0.0,0.0,0.0,0.00010000000000000002,0.0,0.0,0.0,0.0001,-0.5179419448071886,-0.10845247291930724,9.809524096888998,0.0036000000000000003,5.293955920339377e-23,0.0,-5.293955920339377e-23,0.0036000000000000003,0.0,0.0,0.0,0.0036
1704351532.0363698,1444379,1704351532,36090118,base_link,0.06447597742758009,0.003345070184190505,-0.993511710661217,-0.09362766481784798,0.25,0.0,0.0,0.0,0.25,0.0,0.0,0.0,0.25,-0.011780233631106383,0.0067139918978745905,0.3346590144288915,0.00010000000000000002,0.0,0.0,0.0,0.00010000000000000002,0.0,0.0,0.0,0.0001,-0.5652994624520115,0.07012316776948334,9.841817811053865,0.0036000000000000003,5.293955920339377e-23,0.0,-5.293955920339377e-23,0.0036000000000000003,0.0,0.0,0.0,0.0036
1704351532.0844276,1444380,1704351532,84097325,base_link,0.06757397722811229,0.001709342544766431,-0.9937458693573635,-0.08888184789267774,0.25,0.0,0.0,0.0,0.25,0.0,0.0,0.0,0.25,-0.028522609140996396,0.022909304664008062,0.3424869769790159,0.00010000000000000002,0.0,0.0,0.0,0.00010000000000000002,0.0,0.0,0.0,0.0001,-0.5926930839070238,0.1889065058774023,9.924328485739634,0.0036000000000000003,5.293955920339377e-23,0.0,-5.293955920339377e-23,0.0036000000000000003,0.0,0.0,0.0,0.0036
1704351532.132399,1444381,1704351532,132088824,base_link,0.07112567053741417,0.0024308000147594453,-0.993932134512934,-0.08386979303929493,0.25,0.0,0.0,0.0,0.25,0.0,0.0,0.0,0.25,-0.03248386043821413,0.02053123779938035,0.34981646235210473,0.00010000000000000002,0.0,0.0,0.0,0.00010000000000000002,0.0,0.0,0.0,0.0001,-0.6034980412247327,0.16481895940269914,9.887107486195045,0.0036000000000000003,5.293955920339377e-23,0.0,-5.293955920339377e-23,0.0036000000000000003,0.0,0.0,0.0,0.0036
1704351532.1964045,1444382,1704351532,196098890,base_link,0.07321273559667335,0.005744861204050497,-0.9942474323541488,-0.07796752640285474,0.25,0.0,0.0,0.0,0.25,0.0,0.0,0.0,0.25,-0.016254008520095068,0.01231173905406975,0.33111854149671294,0.00010000000000000002,0.0,0.0,0.0,0.00010000000000000002,0.0,0.0,0.0,0.0001,-0.6979627151210124,-0.019102966438509346,9.97206263787111,0.0036000000000000003,5.293955920339377e-23,0.0,-5.293955920339377e-23,0.0036000000000000003,0.0,0.0,0.0,0.0036
1704351532.2444155,1444383,1704351532,244064415,base_link,0.07248905131067519,0.009598812057518733,-0.9946364252906501,-0.07315450589129788,0.25,0.0,0.0,0.0,0.25,0.0,0.0,0.0,0.25,-0.010582828274420395,-0.009116187877278456,0.2990469580162429,0.00010000000000000002,0.0,0.0,0.0,0.00010000000000000002,0.0,0.0,0.0,0.0001,-0.7331182505340839,-0.2858129357970876,9.784337479578078,0.0036000000000000003,5.293955920339377e-23,0.0,-5.293955920339377e-23,0.0036000000000000003,0.0,0.0,0.0,0.0036
1704351532.3082883,1444384,1704351532,308058014,base_link,0.06720355401683832,0.01244436175935829,-0.9954736032149587,-0.06603881805525515,0.25,0.0,0.0,0.0,0.25,0.0,0.0,0.0,0.25,0.004392242335339091,-0.023889084541775265,0.3001431151209195,0.00010000000000000002,0.0,0.0,0.0,0.00010000000000000002,0.0,0.0,0.0,0.0001,-0.7554025102613482,-0.32796633404558545,9.919803858697628,0.0036000000000000003,5.293955920339377e-23,0.0,-5.293955920339377e-23,0.0036000000000000003,0.0,0.0,0.0,0.0036
1704351532.3564084,1444385,1704351532,356078524,base_link,0.06340313262437096,0.008443049356136482,-0.9961948691086555,-0.05919915922185763,0.25,0.0,0.0,0.0,0.25,0.0,0.0,0.0,0.25,0.02224156048377488,-0.00981780282854295,0.31569104903896567,0.00010000000000000002,0.0,0.0,0.0,0.00010000000000000002,0.0,0.0,0.0,0.0001,-0.7439708604398987,-0.043532673824043806,10.060872348871678,0.0036000000000000003,5.293955920339377e-23,0.0,-5.293955920339377e-23,0.0036000000000000003,0.0,0.0,0.0,0.0036
1704351532.40439,1444386,1704351532,404070507,base_link,0.059706652137936155,0.004249799430768436,-0.9968182972304835,-0.05263399283540409,0.25,0.0,0.0,0.0,0.25,0.0,0.0,0.0,0.25,0.029503773885497953,-0.0049611009984675105,0.299965682013293,0.00010000000000000002,0.0,0.0,0.0,0.00010000000000000002,0.0,0.0,0.0,0.0001,-0.5556353573538189,0.1276159607811468,9.861523944891939,0.0036000000000000003,5.293955920339377e-23,0.0,-5.293955920339377e-23,0.0036000000000000003,0.0,0.0,0.0,0.0036
1704351532.468527,1444387,1704351532,468124101,base_link,0.054578886581525585,0.0009933078459559092,-0.9974877901925908,-0.04514716929937191,0.25,0.0,0.0,0.0,0.25,0.0,0.0,0.0,0.25,-0.006559450949890298,0.004318792865901816,0.28554040365276984,0.00010000000000000002,0.0,0.0,0.0,0.00010000000000000002,0.0,0.0,0.0,0.0001,-0.4992209703283554,0.10620717567316097,9.797436466670485,0.0036000000000000003,5.293955920339377e-23,0.0,-5.293955920339377e-23,0.0036000000000000003,0.0,0.0,0.0,0.0036
1704351532.5163307,1444388,1704351532,516084022,base_link,0.05133896668416642,0.0002231889715464896,-0.9979123738754125,-0.03918105094077385,0.25,0.0,0.0,0.0,0.25,0.0,0.0,0.0,0.25,0.000816511345852491,0.05104742110617007,0.3079968104650768,0.00010000000000000002,0.0,0.0,0.0,0.00010000000000000002,0.0,0.0,0.0,0.0001,-0.36159937048182483,0.11300154885081685,9.962527087722396,0.0036000000000000003,5.293955920339377e-23,0.0,-5.293955920339377e-23,0.0036000000000000003,0.0,0.0,0.0,0.0036
1704351532.5803752,1444389,1704351532,580069719,base_link,0.048778077517342935,0.003220884567222805,-0.9983362317375777,-0.030579297839063723,0.25,0.0,0.0,0.0,0.25,0.0,0.0,0.0,0.25,0.021901970101264632,0.05832537092525631,0.32138708455745435,0.00010000000000000002,0.0,0.0,0.0,0.00010000000000000002,0.0,0.0,0.0,0.0001,-0.35838253006019977,-0.06613857487984372,9.918495701415225,0.0036000000000000003,5.293955920339377e-23,0.0,-5.293955920339377e-23,0.0036000000000000003,0.0,0.0,0.0,0.0036
1704351532.6283965,1444390,1704351532,628063638,base_link,0.05070164036842653,0.006462707018100452,-0.9984199254146708,-0.02335015239590257,0.25,0.0,0.0,0.0,0.25,0.0,0.0,0.0,0.25,0.03486165687219615,0.018376783404437158,0.34198134255655077,0.00010000000000000002,0.0,0.0,0.0,0.00010000000000000002,0.0,0.0,0.0,0.0001,-0.5047095133961741,-0.23294469830238854,9.944831960840645,0.0036000000000000003,5.293955920339377e-23,0.0,-5.293955920339377e-23,0.0036000000000000003,0.0,0.0,0.0,0.0036
1704351532.6764572,1444391,1704351532,676088296,base_link,0.05353446119539924,0.009201264722544568,-0.9983921355890254,-0.01620314123894747,0.25,0.0,0.0,0.0,0.25,0.0,0.0,0.0,0.25,0.0186826144545037,-0.012907790874090398,0.3349062556465917,0.00010000000000000002,0.0,0.0,0.0,0.00010000000000000002,0.0,0.0,0.0,0.0001,-0.7273363359117309,-0.23879627034365225,9.695701113790266,0.0036000000000000003,5.293955920339377e-23,0.0,-5.293955920339377e-23,0.0036000000000000003,0.0,0.0,0.0,0.0036
1704351532.7405815,1444392,1704351532,740150995,base_link,0.059552025903230534,0.006584317187080683,-0.9981782740656865,-0.007094798182319593,0.25,0.0,0.0,0.0,0.25,0.0,0.0,0.0,0.25,0.02080799023924274,-0.007791268413695795,0.30903967105843827,0.00010000000000000002,0.0,0.0,0.0,0.00010000000000000002,0.0,0.0,0.0,0.0001,-0.9141482205505584,-0.027203203620720855,9.863295713791224,0.0036000000000000003,5.293955920339377e-23,0.0,-5.293955920339377e-23,0.0036000000000000003,0.0,0.0,0.0,0.0036
1704351532.7885506,1444393,1704351532,788042408,base_link,0.05851986090318194,0.0013070675959269927,-0.9982851804126636,-0.0006449981610457717,0.25,0.0,0.0,0.0,0.25,0.0,0.0,0.0,0.25,0.008223043516820206,-0.009490617053195823,0.2748084303814821,0.00010000000000000002,0.0,0.0,0.0,0.00010000000000000002,0.0,0.0,0.0,0.0001,-0.84723987857335,0.20380849356731262,10.013126945243433,0.0036000000000000003,5.293955920339377e-23,0.0,-5.293955920339377e-23,0.0036000000000000003,0.0,0.0,0.0,0.0036
1704351532.8523421,1444394,1704351532,852044112,base_link,0.05738149056179536,-0.005212412069544632,-0.9982995472483195,0.00884360023543535,0.25,0.0,0.0,0.0,0.25,0.0,0.0,0.0,0.25,-0.011723533161156199,-0.012126319720080317,0.29993798513795616,0.00010000000000000002,0.0,0.0,0.0,0.00010000000000000002,0.0,0.0,0.0,0.0001,-0.7703239039555445,0.3804572974828957,9.744194907072508,0.0036000000000000003,5.293955920339377e-23,0.0,-5.293955920339377e-23,0.0036000000000000003,0.0,0.0,0.0,0.0036
1704351532.9003458,1444395,1704351532,900049012,base_link,0.05957893680628513,-0.0003833548131563925,-0.9981006078028002,0.015664610809104865,0.25,0.0,0.0,0.0,0.25,0.0,0.0,0.0,0.25,-0.04959751704464039,-0.0020519816302133277,0.32126204914427514,0.00010000000000000002,0.0,0.0,0.0,0.00010000000000000002,0.0,0.0,0.0,0.0001,-0.7014851288561705,0.3237192876985753,9.819502768332907,0.0036000000000000003,5.293955920339377e-23,0.0,-5.293955920339377e-23,0.0036000000000000003,0.0,0.0,0.0,0.0036
1704351532.9643216,1444396,1704351532,964053580,base_link,0.05473391510131977,0.0031438678233557137,-0.9981653248697387,0.0256962810632157,0.25,0.0,0.0,0.0,0.25,0.0,0.0,0.0,0.25,-0.0447497944217772,0.02588464367165814,0.3323286818960449,0.00010000000000000002,0.0,0.0,0.0,0.00010000000000000002,0.0,0.0,0.0,0.0001,-0.6153524716325671,0.22156397694466753,9.860894411926754,0.0036000000000000003,5.293955920339377e-23,0.0,-5.293955920339377e-23,0.0036000000000000003,0.0,0.0,0.0,0.0036
1704351533.0122848,1444397,1704351533,12060229,base_link,0.05387490030479649,0.007945814024344435,-0.9979557388107286,0.033447010798747824,0.25,0.0,0.0,0.0,0.25,0.0,0.0,0.0,0.25,-0.03471796163169856,0.044516791743807335,0.33822169146665865,0.00010000000000000002,0.0,0.0,0.0,0.00010000000000000002,0.0,0.0,0.0,0.0001,-0.5096710032112476,-0.08707260430482025,9.844464294589205,0.0036000000000000003,5.293955920339377e-23,0.0,-5.293955920339377e-23,0.0036000000000000003,0.0,0.0,0.0,0.0036
1704351533.07632,1444398,1704351533,76055170,base_link,0.051932816288010206,0.013060780464171898,-0.9976192470507914,0.04345384355698211,0.25,0.0,0.0,0.0,0.25,0.0,0.0,0.0,0.25,2.2279256601323755e-05,0.03073859887820549,0.32919257668588126,0.00010000000000000002,0.0,0.0,0.0,0.00010000000000000002,0.0,0.0,0.0,0.0001,-0.4689567407140461,-0.21602364231082682,10.064778253094374,0.0036000000000000003,5.293955920339377e-23,0.0,-5.293955920339377e-23,0.0036000000000000003,0.0,0.0,0.0,0.0036
1704351533.1243312,1444399,1704351533,124052246,base_link,0.05182275252407709,0.017092159260327058,-0.9972170730796326,0.050797338228872904,0.25,0.0,0.0,0.0,0.25,0.0,0.0,0.0,0.25,0.013864673838708602,0.01803852683485627,0.32634356024122807,0.00010000000000000002,0.0,0.0,0.0,0.00010000000000000002,0.0,0.0,0.0,0.0001,-0.5087440099160969,-0.23592325439600295,9.784443839050303,0.0036000000000000003,5.293955920339377e-23,0.0,-5.293955920339377e-23,0.0036000000000000003,0.0,0.0,0.0,0.0036
1704351533.1722808,1444400,1704351533,172060068,base_link,0.05060715179088579,0.021187723604987597,-0.9968222787414062,0.05775241259759886,0.25,0.0,0.0,0.0,0.25,0.0,0.0,0.0,0.25,0.002452555881191409,0.010060882863812423,0.3063304372815006,0.00010000000000000002,0.0,0.0,0.0,0.00010000000000000002,0.0,0.0,0.0,0.0001,-0.6197622728272164,-0.11145505195343366,10.041317169527726,0.0036000000000000003,5.293955920339377e-23,0.0,-5.293955920339377e-23,0.0036000000000000003,0.0,0.0,0.0,0.0036
1704351533.2365901,1444401,1704351533,236061817,base_link,0.047954662827777106,0.02607228660033491,-0.9962559583976741,0.06704216241766127,0.25,0.0,0.0,0.0,0.25,0.0,0.0,0.0,0.25,0.009704854851141559,-0.002563220069092034,0.30526414087054654,0.00010000000000000002,0.0,0.0,0.0,0.00010000000000000002,0.0,0.0,0.0,0.0001,-0.6986440262612194,0.1207428587517347,10.005626454191052,0.0036000000000000003,5.293955920339377e-23,0.0,-5.293955920339377e-23,0.0036000000000000003,0.0,0.0,0.0,0.0036
1704351533.2842698,1444402,1704351533,284015359,base_link,0.04887697832528553,0.030691209291549337,-0.9956094125575704,0.07369523925452362,0.25,0.0,0.0,0.0,0.25,0.0,0.0,0.0,0.25,-0.013152990187944628,0.01444194296349078,0.2965530408134382,0.00010000000000000002,0.0,0.0,0.0,0.00010000000000000002,0.0,0.0,0.0,0.0001,-0.7150109194765447,0.21527109354109478,9.71514909616925,0.0036000000000000003,5.293955920339377e-23,0.0,-5.293955920339377e-23,0.0036000000000000003,0.0,0.0,0.0,0.0036
1704351533.3483038,1444403,1704351533,348016754,base_link,0.048505197523223076,0.03601674177469133,-0.9947619397256684,0.08245437161481334,0.25,0.0,0.0,0.0,0.25,0.0,0.0,0.0,0.25,-0.007810680515741564,0.022738506986089365,0.2968815417338995,0.00010000000000000002,0.0,0.0,0.0,0.00010000000000000002,0.0,0.0,0.0,0.0001,-0.6545118478779764,0.28392402414769596,9.928306266005487,0.0036000000000000003,5.293955920339377e-23,0.0,-5.293955920339377e-23,0.0036000000000000003,0.0,0.0,0.0,0.0036
1704351533.3965228,1444404,1704351533,396041200,base_link,0.04911801475462225,0.04109885265364323,-0.9939271403308425,0.08948264999916185,0.25,0.0,0.0,0.0,0.25,0.0,0.0,0.0,0.25,-0.02818516767386316,0.04428351647200143,0.31292339216561443,0.00010000000000000002,0.0,0.0,0.0,0.00010000000000000002,0.0,0.0,0.0,0.0001,-0.6170044232028168,-0.024004091575579117,9.791076314947167,0.0036000000000000003,5.293955920339377e-23,0.0,-5.293955920339377e-23,0.0036000000000000003,0.0,0.0,0.0,0.0036
1704351533.4444199,1444405,1704351533,444026487,base_link,0.048003113698252754,0.0452681735596165,-0.9930577501930724,0.09737966070654808,0.25,0.0,0.0,0.0,0.25,0.0,0.0,0.0,0.25,-0.020188980401841274,0.04932162293708586,0.34574408957121006,0.00010000000000000002,0.0,0.0,0.0,0.00010000000000000002,0.0,0.0,0.0,0.0001,-0.5573899889695012,-0.1695875922700664,9.919678567358757,0.0036000000000000003,5.293955920339377e-23,0.0,-5.293955920339377e-23,0.0036000000000000003,0.0,0.0,0.0,0.0036
1704351533.5082698,1444406,1704351533,508022369,base_link,0.04627740932627525,0.049923248775697884,-0.9918019980443036,0.10814280971500217,0.25,0.0,0.0,0.0,0.25,0.0,0.0,0.0,0.25,0.0007361759097886313,0.046995777673680114,0.3523558530305225,0.00010000000000000002,0.0,0.0,0.0,0.00010000000000000002,0.0,0.0,0.0,0.0001,-0.6193425514504899,-0.08178344875752147,9.920035931317436,0.0036000000000000003,5.293955920339377e-23,0.0,-5.293955920339377e-23,0.0036000000000000003,0.0,0.0,0.0,0.0036
1704351533.556325,1444407,1704351533,556042428,base_link,0.04428006613839846,0.05342660456490728,-0.990853431621811,0.11573396524238465,0.25,0.0,0.0,0.0,0.25,0.0,0.0,0.0,0.25,0.00997039740467589,-0.006434640035786411,0.3303442939887996,0.00010000000000000002,0.0,0.0,0.0,0.00010000000000000002,0.0,0.0,0.0,0.0001,-0.6963559502001111,-0.10075865263201148,9.888630164072964,0.0036000000000000003,5.293955920339377e-23,0.0,-5.293955920339377e-23,0.0036000000000000003,0.0,0.0,0.0,0.0036
1704351533.6203196,1444408,1704351533,620034767,base_link,0.04442386912047005,0.05981159447801348,-0.9893582102930892,0.12497769698638295,0.25,0.0,0.0,0.0,0.25,0.0,0.0,0.0,0.25,-0.020973577064781004,-0.021617708393131076,0.2980620544661044,0.00010000000000000002,0.0,0.0,0.0,0.00010000000000000002,0.0,0.0,0.0,0.0001,-0.935117345031703,-0.006502147104906079,9.842941034154132,0.0036000000000000003,5.293955920339377e-23,0.0,-5.293955920339377e-23,0.0036000000000000003,0.0,0.0,0.0,0.0036
1704351533.6683383,1444409,1704351533,668055339,base_link,0.04542857746422569,0.06470084548115239,-0.9880780533413903,0.13210528168354785,0.25,0.0,0.0,0.0,0.25,0.0,0.0,0.0,0.25,-0.03213236441368968,0.009862605149321446,0.30466443028257434,0.00010000000000000002,0.0,0.0,0.0,0.00010000000000000002,0.0,0.0,0.0,0.0001,-0.9371192927006644,0.23765683992931247,9.934151222398054,0.0036000000000000003,5.293955920339377e-23,0.0,-5.293955920339377e-23,0.0036000000000000003,0.0,0.0,0.0,0.0036
1704351533.7162623,1444410,1704351533,716003018,base_link,0.04550686167494717,0.06865481886432123,-0.9869171737643959,0.13860062595854877,0.25,0.0,0.0,0.0,0.25,0.0,0.0,0.0,0.25,-0.007231212652647758,0.030735825761490938,0.2814601745466594,0.00010000000000000002,0.0,0.0,0.0,0.00010000000000000002,0.0,0.0,0.0,0.0001,-0.7072223825434338,0.3827455850123099,9.908343911767703,0.0036000000000000003,5.293955920339377e-23,0.0,-5.293955920339377e-23,0.0036000000000000003,0.0,0.0,0.0,0.0036
1704351533.7803063,1444411,1704351533,780000758,base_link,0.04457637389592757,0.07351349883670404,-0.9855391654268623,0.14601803240970004,0.25,0.0,0.0,0.0,0.25,0.0,0.0,0.0,0.25,0.015441100609188808,0.02208847159990768,0.24754075674383794,0.00010000000000000002,0.0,0.0,0.0,0.00010000000000000002,0.0,0.0,0.0,0.0001,-0.4712034797732084,-0.009282455017990257,9.950062754847627,0.0036000000000000003,5.293955920339377e-23,0.0,-5.293955920339377e-23,0.0036000000000000003,0.0,0.0,0.0,0.0036
1704351533.828298,1444412,1704351533,828007711,base_link,0.04178337772324077,0.0769279801258484,-0.9848075827676216,0.14996753029635373,0.25,0.0,0.0,0.0,0.25,0.0,0.0,0.0,0.25,0.0051815627167858475,-0.017092479695974282,0.17721834032937117,0.00010000000000000002,0.0,0.0,0.0,0.00010000000000000002,0.0,0.0,0.0,0.0001,-0.05429860954406459,-0.42690022846844206,9.834013830829058,0.0036000000000000003,5.293955920339377e-23,0.0,-5.293955920339377e-23,0.0036000000000000003,0.0,0.0,0.0,0.0036
1704351533.8923714,1444413,1704351533,891999630,base_link,0.036784515022805955,0.07909287962051896,-0.9840719179778167,0.15489892218905912,0.25,0.0,0.0,0.0,0.25,0.0,0.0,0.0,0.25,0.04437511524226418,-0.02524880587719127,0.16700719814351891,0.00010000000000000002,0.0,0.0,0.0,0.00010000000000000002,0.0,0.0,0.0,0.0001,0.13884629061248435,-0.30022861766179126,10.005600225214767,0.0036000000000000003,5.293955920339377e-23,0.0,-5.293955920339377e-23,0.0036000000000000003,0.0,0.0,0.0,0.0036
1704351533.9409406,1444414,1704351533,940015034,base_link,0.033822362918252795,0.0810316343190878,-0.9834950485694591,0.15820054186241247,0.25,0.0,0.0,0.0,0.25,0.0,0.0,0.0,0.25,0.044886213765069925,-0.00797496365442357,0.15512675329689138,0.00010000000000000002,0.0,0.0,0.0,0.00010000000000000002,0.0,0.0,0.0,0.0001,0.1270586255884739,-0.11820976483883129,9.797575288266481,0.0036000000000000003,5.293955920339377e-23,0.0,-5.293955920339377e-23,0.0036000000000000003,0.0,0.0,0.0,0.0036
1704351533.9883208,1444415,1704351533,988006566,base_link,0.03202047918798065,0.0834984880554831,-0.9828759264608596,0.16111363874212217,0.25,0.0,0.0,0.0,0.25,0.0,0.0,0.0,0.25,0.02573951939356849,0.021733407488865944,0.13958959685888167,0.00010000000000000002,0.0,0.0,0.0,0.00010000000000000002,0.0,0.0,0.0,0.0001,0.020022269784535588,0.12426323547353658,9.879205395423542,0.0036000000000000003,5.293955920339377e-23,0.0,-5.293955920339377e-23,0.0036000000000000003,0.0,0.0,0.0,0.0036
1704351534.0525541,1444416,1704351534,52006788,base_link,0.028922029661192672,0.08589827771376556,-0.9821983200474992,0.16453407605099982,0.25,0.0,0.0,0.0,0.25,0.0,0.0,0.0,0.25,-0.0006737536230538361,0.02433781112379028,0.11767500184797286,0.00010000000000000002,0.0,0.0,0.0,0.00010000000000000002,0.0,0.0,0.0,0.0001,-0.057311148557058364,0.35144010264902903,9.8545807978834,0.0036000000000000003,5.293955920339377e-23,0.0,-5.293955920339377e-23,0.0036000000000000003,0.0,0.0,0.0,0.0036
1704351534.1002743,1444417,1704351534,100022795,base_link,0.026393797125339107,0.08731519410472154,-0.9818088941908687,0.1665254324103836,0.25,0.0,0.0,0.0,0.25,0.0,0.0,0.0,0.25,-0.02034550117876771,0.02070385597932048,0.08514613696357945,0.00010000000000000002,0.0,0.0,0.0,0.00010000000000000002,0.0,0.0,0.0,0.0001,-0.18965167123485538,0.4104098093635313,9.852576302522456,0.0036000000000000003,5.293955920339377e-23,0.0,-5.293955920339377e-23,0.0036000000000000003,0.0,0.0,0.0,0.0036
1704351534.164321,1444418,1704351534,164039678,base_link,0.03124483269345099,0.0918307495149459,-0.9806438963814756,0.17008357464269988,0.25,0.0,0.0,0.0,0.25,0.0,0.0,0.0,0.25,-0.019185672738768783,0.04999123348038565,0.11049437053506266,0.00010000000000000002,0.0,0.0,0.0,0.00010000000000000002,0.0,0.0,0.0,0.0001,-0.6165078999548526,0.26696244472028174,9.90026148556763,0.0036000000000000003,5.293955920339377e-23,0.0,-5.293955920339377e-23,0.0036000000000000003,0.0,0.0,0.0,0.0036
1704351534.2122848,1444419,1704351534,212024811,base_link,0.03631701893556336,0.09518383172948404,-0.9796022204026318,0.1732068188471831,0.25,0.0,0.0,0.0,0.25,0.0,0.0,0.0,0.25,-0.01871131844210235,0.06445973656739125,0.1290735643401074,0.00010000000000000002,0.0,0.0,0.0,0.00010000000000000002,0.0,0.0,0.0,0.0001,-1.0634251573261786,0.10133212705802933,9.86997726816628,0.0036000000000000003,5.293955920339377e-23,0.0,-5.293955920339377e-23,0.0036000000000000003,0.0,0.0,0.0,0.0036
1704351534.2602987,1444420,1704351534,260019409,base_link,0.0411596474103505,0.09643197003478696,-0.978495687776219,0.17763149378308365,0.25,0.0,0.0,0.0,0.25,0.0,0.0,0.0,0.25,0.004146778100693951,0.016961421840718388,0.17176659990662677,0.00010000000000000002,0.0,0.0,0.0,0.00010000000000000002,0.0,0.0,0.0,0.0001,-1.3247891958083118,0.11771604088641849,9.877879492690454,0.0036000000000000003,5.293955920339377e-23,0.0,-5.293955920339377e-23,0.0036000000000000003,0.0,0.0,0.0,0.0036
1704351534.3242443,1444421,1704351534,323987029,base_link,0.0444363454500589,0.10034560109841824,-0.976609607128607,0.18490496696235112,0.25,0.0,0.0,0.0,0.25,0.0,0.0,0.0,0.25,-0.014866003233897264,-0.03134928318793639,0.2079157493321171,0.00010000000000000002,0.0,0.0,0.0,0.00010000000000000002,0.0,0.0,0.0,0.0001,-1.4694614530732173,0.09181061140217292,9.841310593497916,0.0036000000000000003,5.293955920339377e-23,0.0,-5.293955920339377e-23,0.0036000000000000003,0.0,0.0,0.0,0.0036
1704351534.3722322,1444422,1704351534,371979778,base_link,0.04741019621808822,0.10226166200970546,-0.9748461794025644,0.1922751993414608,0.25,0.0,0.0,0.0,0.25,0.0,0.0,0.0,0.25,-0.036566149517578375,-0.028330581637201112,0.2769790398279512,0.00010000000000000002,0.0,0.0,0.0,0.00010000000000000002,0.0,0.0,0.0,0.0001,-1.5809050049270064,0.20768334398257018,9.844301154632975,0.0036000000000000003,5.293955920339377e-23,0.0,-5.293955920339377e-23,0.0036000000000000003,0.0,0.0,0.0,0.0036
1704351534.4363356,1444423,1704351534,435971955,base_link,0.04988237051636998,0.10443492735268614,-0.9721926389908483,0.20358430134103428,0.25,0.0,0.0,0.0,0.25,0.0,0.0,0.0,0.25,-0.03883449879471753,-0.017024882051606488,0.3229772580443407,0.00010000000000000002,0.0,0.0,0.0,0.00010000000000000002,0.0,0.0,0.0,0.0001,-1.4498220471526841,0.3809734628801867,9.92950177493584,0.0036000000000000003,5.293955920339377e-23,0.0,-5.293955920339377e-23,0.0036000000000000003,0.0,0.0,0.0,0.0036
1704351534.4842744,1444424,1704351534,483985957,base_link,0.048078878821028306,0.10676468535660946,-0.9704645484383972,0.21092245872897167,0.25,0.0,0.0,0.0,0.25,0.0,0.0,0.0,0.25,-0.05282873438443132,0.0002660995646942861,0.28692924216124616,0.00010000000000000002,0.0,0.0,0.0,0.00010000000000000002,0.0,0.0,0.0,0.0001,-1.1951728030276907,0.3718741269534844,9.707471679338818,0.0036000000000000003,5.293955920339377e-23,0.0,-5.293955920339377e-23,0.0036000000000000003,0.0,0.0,0.0,0.0036
1704351534.5483398,1444425,1704351534,547980647,base_link,0.04628784839975465,0.111557430343043,-0.967863559487403,0.22057312855865452,0.25,0.0,0.0,0.0,0.25,0.0,0.0,0.0,0.25,-0.047112081826225644,0.020081769276195826,0.2939267645044566,0.00010000000000000002,0.0,0.0,0.0,0.00010000000000000002,0.0,0.0,0.0,0.0001,-1.0527751812470854,0.34670997202036313,9.898661891196385,0.0036000000000000003,5.293955920339377e-23,0.0,-5.293955920339377e-23,0.0036000000000000003,0.0,0.0,0.0,0.0036
1704351534.5962787,1444426,1704351534,595975126,base_link,0.04375520636060102,0.11511704367986436,-0.9659512960788781,0.22753382556069604,0.25,0.0,0.0,0.0,0.25,0.0,0.0,0.0,0.25,-0.04609515766276039,-0.0025199716159269242,0.29091962287008,0.00010000000000000002,0.0,0.0,0.0,0.00010000000000000002,0.0,0.0,0.0,0.0001,-0.7229016852620371,-0.06437330237234651,9.946897362850097,0.0036000000000000003,5.293955920339377e-23,0.0,-5.293955920339377e-23,0.0036000000000000003,0.0,0.0,0.0,0.0036
1704351534.6602998,1444427,1704351534,659987019,base_link,0.039777479112364636,0.11960154188983792,-0.9630869381312198,0.23785872473817518,0.25,0.0,0.0,0.0,0.25,0.0,0.0,0.0,0.25,-0.04208265094714182,-0.021840930025057194,0.3255720091839185,0.00010000000000000002,0.0,0.0,0.0,0.00010000000000000002,0.0,0.0,0.0,0.0001,-0.6677379732011948,-0.2521299592581449,9.809173365599653,0.0036000000000000003,5.293955920339377e-23,0.0,-5.293955920339377e-23,0.0036000000000000003,0.0,0.0,0.0,0.0036
1704351534.7082398,1444428,1704351534,707948972,base_link,0.03805566700572153,0.1228669735807518,-0.9607360767684365,0.2458488637505763,0.25,0.0,0.0,0.0,0.25,0.0,0.0,0.0,0.25,-0.022540034307197865,0.004228992517150954,0.3377683215805863,0.00010000000000000002,0.0,0.0,0.0,0.00010000000000000002,0.0,0.0,0.0,0.0001,-0.7121056862376011,-0.16662512815786948,10.010637263503527,0.0036000000000000003,5.293955920339377e-23,0.0,-5.293955920339377e-23,0.0036000000000000003,0.0,0.0,0.0,0.0036
1704351534.7562177,1444429,1704351534,755964038,base_link,0.03632816038603515,0.12494539726863542,-0.9585888087553087,0.2533306301919051,0.25,0.0,0.0,0.0,0.25,0.0,0.0,0.0,0.25,0.01245137214942245,0.0019210720026136433,0.31417630958995585,0.00010000000000000002,0.0,0.0,0.0,0.00010000000000000002,0.0,0.0,0.0,0.0001,-0.6635496443978985,-0.05080612374807811,9.93940360292181,0.0036000000000000003,5.293955920339377e-23,0.0,-5.293955920339377e-23,0.0036000000000000003,0.0,0.0,0.0,0.0036
1704351534.8202243,1444430,1704351534,819963453,base_link,0.033559778115367395,0.1277976453528014,-0.9559039439650029,0.2622768633472637,0.25,0.0,0.0,0.0,0.25,0.0,0.0,0.0,0.25,0.006560683531462387,-0.006359828190917311,0.2775198113320486,0.00010000000000000002,0.0,0.0,0.0,0.00010000000000000002,0.0,0.0,0.0,0.0001,-0.6454836043302187,-0.030920694286322544,9.874612043521033,0.0036000000000000003,5.293955920339377e-23,0.0,-5.293955920339377e-23,0.0036000000000000003,0.0,0.0,0.0,0.0036
1704351534.868369,1444431,1704351534,867990311,base_link,0.031967347768598234,0.12989485684384358,-0.9537076407061312,0.269345783150403,0.25,0.0,0.0,0.0,0.25,0.0,0.0,0.0,0.25,0.015289410549613396,-0.007440625844231323,0.290251801937229,0.00010000000000000002,0.0,0.0,0.0,0.00010000000000000002,0.0,0.0,0.0,0.0001,-0.6932050358445536,0.01898662632227453,9.902948076321008,0.0036000000000000003,5.293955920339377e-23,0.0,-5.293955920339377e-23,0.0036000000000000003,0.0,0.0,0.0,0.0036
1704351534.9323094,1444432,1704351534,931963666,base_link,0.02931255291900916,0.13236862228287755,-0.9505539037387927,0.2794040052741641,0.25,0.0,0.0,0.0,0.25,0.0,0.0,0.0,0.25,0.006079196782254373,-0.013398268826740434,0.30976152087190423,0.00010000000000000002,0.0,0.0,0.0,0.00010000000000000002,0.0,0.0,0.0,0.0001,-0.6375122318165343,0.005494294590288692,9.851557496073964,0.0036000000000000003,5.293955920339377e-23,0.0,-5.293955920339377e-23,0.0036000000000000003,0.0,0.0,0.0,0.0036
1704351534.9802718,1444433,1704351534,979964142,base_link,0.026947858597121427,0.13407864140509848,-0.9480244327809552,0.28730890290128597,0.25,0.0,0.0,0.0,0.25,0.0,0.0,0.0,0.25,-0.008829461320559692,-0.020041729625395806,0.3224373021333271,0.00010000000000000002,0.0,0.0,0.0,0.00010000000000000002,0.0,0.0,0.0,0.0001,-0.5666479127151219,0.07509064496306742,9.910826624473511,0.0036000000000000003,5.293955920339377e-23,0.0,-5.293955920339377e-23,0.0036000000000000003,0.0,0.0,0.0,0.0036
1704351535.028249,1444434,1704351535,27974637,base_link,0.024941907198790483,0.1366903885005138,-0.9452985234345295,0.2951344448710859,0.25,0.0,0.0,0.0,0.25,0.0,0.0,0.0,0.25,-0.033688740070113736,-0.012759491288486356,0.31504216983936784,0.00010000000000000002,0.0,0.0,0.0,0.00010000000000000002,0.0,0.0,0.0,0.0001,-0.6378751130816688,0.13549440506239688,9.863692636605805,0.0036000000000000003,5.293955920339377e-23,0.0,-5.293955920339377e-23,0.0036000000000000003,0.0,0.0,0.0,0.0036
1704351535.092361,1444435,1704351535,91974433,base_link,0.023185902500828064,0.14094539512069057,-0.9413827379345217,0.30560652846167824,0.25,0.0,0.0,0.0,0.25,0.0,0.0,0.0,0.25,-0.037078115409514195,-0.005703177255450071,0.31804801318271303,0.00010000000000000002,0.0,0.0,0.0,0.00010000000000000002,0.0,0.0,0.0,0.0001,-0.6800944944436941,0.0602290330481541,10.00209112749235,0.0036000000000000003,5.293955920339377e-23,0.0,-5.293955920339377e-23,0.0036000000000000003,0.0,0.0,0.0,0.0036
1704351535.140458,1444436,1704351535,139986453,base_link,0.022070060048859134,0.1434680890441931,-0.938627227369408,0.3129037358617903,0.25,0.0,0.0,0.0,0.25,0.0,0.0,0.0,0.25,-0.011566678785497423,-0.014046826578544315,0.2924964472620023,0.00010000000000000002,0.0,0.0,0.0,0.00010000000000000002,0.0,0.0,0.0,0.0001,-0.6701628802760008,0.02610713231314947,9.84161540389442,0.0036000000000000003,5.293955920339377e-23,0.0,-5.293955920339377e-23,0.0036000000000000003,0.0,0.0,0.0,0.0036
1704351535.2042835,1444437,1704351535,203961005,base_link,0.021900719075142065,0.14764142469226646,-0.9350636466608367,0.3215250299932611,0.25,0.0,0.0,0.0,0.25,0.0,0.0,0.0,0.25,0.006352143941076868,-0.014925150304582724,0.26244395600673265,0.00010000000000000002,0.0,0.0,0.0,0.00010000000000000002,0.0,0.0,0.0,0.0001,-0.7458657686520497,-0.14648522445110643,9.87642438486635,0.0036000000000000003,5.293955920339377e-23,0.0,-5.293955920339377e-23,0.0036000000000000003,0.0,0.0,0.0,0.0036
1704351535.2522411,1444438,1704351535,251935368,base_link,0.021623004236416218,0.15116849027633422,-0.9324355270871135,0.3274820927335458,0.25,0.0,0.0,0.0,0.25,0.0,0.0,0.0,0.25,-0.014809365840120218,-0.02017939516921771,0.2382952601244916,0.00010000000000000002,0.0,0.0,0.0,0.00010000000000000002,0.0,0.0,0.0,0.0001,-0.7619742272036487,-0.14674526486289746,9.762833908796019,0.0036000000000000003,5.293955920339377e-23,0.0,-5.293955920339377e-23,0.0036000000000000003,0.0,0.0,0.0,0.0036
1704351535.3002121,1444439,1704351535,299954026,base_link,0.021670482543227183,0.15404775551809458,-0.9293810486358483,0.33473951909314764,0.25,0.0,0.0,0.0,0.25,0.0,0.0,0.0,0.25,-0.005659198186281166,-0.011297305573689841,0.2958808589543022,0.00010000000000000002,0.0,0.0,0.0,0.00010000000000000002,0.0,0.0,0.0,0.0001,-0.6337117449474649,-0.01858815677111786,9.992246334076746,0.0036000000000000003,5.293955920339377e-23,0.0,-5.293955920339377e-23,0.0036000000000000003,0.0,0.0,0.0,0.0036
1704351535.3642144,1444440,1704351535,363952721,base_link,0.01990947185407006,0.1569500103365131,-0.924771662107806,0.3460746742369718,0.25,0.0,0.0,0.0,0.25,0.0,0.0,0.0,0.25,-0.01166890789436997,-0.03521847969330707,0.3488041282427384,0.00010000000000000002,0.0,0.0,0.0,0.00010000000000000002,0.0,0.0,0.0,0.0001,-0.4190859236025162,0.0025430060241031305,9.821410262854572,0.0036000000000000003,5.293955920339377e-23,0.0,-5.293955920339377e-23,0.0036000000000000003,0.0,0.0,0.0,0.0036
1704351535.4122684,1444441,1704351535,411948710,base_link,0.018677648993142573,0.1587647268291509,-0.9211628552154344,0.35482939719575496,0.25,0.0,0.0,0.0,0.25,0.0,0.0,0.0,0.25,-0.0026453238090369574,-0.02793087764340512,0.3607862891982501,0.00010000000000000002,0.0,0.0,0.0,0.00010000000000000002,0.0,0.0,0.0,0.0001,-0.38052020668923503,0.05913720697490783,10.186519681264233,0.0036000000000000003,5.293955920339377e-23,0.0,-5.293955920339377e-23,0.0036000000000000003,0.0,0.0,0.0,0.0036
1704351535.4762254,1444442,1704351535,475954750,base_link,0.017298114279114856,0.16155181069501143,-0.916757211267098,0.3649082121483751,0.25,0.0,0.0,0.0,0.25,0.0,0.0,0.0,0.25,0.015198710213786881,-0.022644005331323255,0.31183292756776787,0.00010000000000000002,0.0,0.0,0.0,0.00010000000000000002,0.0,0.0,0.0,0.0001,-0.4123839750846518,-0.18218077480122385,9.806715340042073,0.0036000000000000003,5.293955920339377e-23,0.0,-5.293955920339377e-23,0.0036000000000000003,0.0,0.0,0.0,0.0036
1704351535.5242202,1444443,1704351535,523953882,base_link,0.017367250511646587,0.16353550539570666,-0.9135104209915712,0.37209303651699654,0.25,0.0,0.0,0.0,0.25,0.0,0.0,0.0,0.25,0.03687453218193384,-0.011076279207836583,0.295419998927664,0.00010000000000000002,0.0,0.0,0.0,0.00010000000000000002,0.0,0.0,0.0,0.0001,-0.6066693097779648,-0.20756598644074103,9.777970553813745,0.0036000000000000003,5.293955920339377e-23,0.0,-5.293955920339377e-23,0.0036000000000000003,0.0,0.0,0.0,0.0036
1704351535.588289,1444444,1704351535,587947008,base_link,0.017896384638135074,0.1656497197495067,-0.9092424164154659,0.38146837084450214,0.25,0.0,0.0,0.0,0.25,0.0,0.0,0.0,0.25,0.04387394134114353,0.004401069950074882,0.2868591344455498,0.00010000000000000002,0.0,0.0,0.0,0.00010000000000000002,0.0,0.0,0.0,0.0001,-0.6652418984100176,-0.09829936330800988,9.979467848028452,0.0036000000000000003,5.293955920339377e-23,0.0,-5.293955920339377e-23,0.0036000000000000003,0.0,0.0,0.0,0.0036
1704351535.6362848,1444445,1704351535,635961826,base_link,0.01833736686718719,0.16668574362428068,-0.9061434040516028,0.3883088141448408,0.25,0.0,0.0,0.0,0.25,0.0,0.0,0.0,0.25,0.033974060122455664,0.021919743201513277,0.27625597494723786,0.00010000000000000002,0.0,0.0,0.0,0.00010000000000000002,0.0,0.0,0.0,0.0001,-0.5603999426193654,0.2047448013955618,9.824665507147753,0.0036000000000000003,5.293955920339377e-23,0.0,-5.293955920339377e-23,0.0036000000000000003,0.0,0.0,0.0,0.0036
1704351535.6841967,1444446,1704351535,683915853,base_link,0.01889972725132037,0.1683267153067088,-0.9028061652753036,0.3952846381593663,0.25,0.0,0.0,0.0,0.25,0.0,0.0,0.0,0.25,0.009750942595991614,0.03092213129039914,0.2851941927110595,0.00010000000000000002,0.0,0.0,0.0,0.00010000000000000002,0.0,0.0,0.0,0.0001,-0.49560920200426584,0.28555932523819755,9.782415929641612,0.0036000000000000003,5.293955920339377e-23,0.0,-5.293955920339377e-23,0.0036000000000000003,0.0,0.0,0.0,0.0036
1704351535.7482119,1444447,1704351535,747924019,base_link,0.01932455079330154,0.1717003158357604,-0.8977623380113622,0.40517693385348336,0.25,0.0,0.0,0.0,0.25,0.0,0.0,0.0,0.25,-0.02738319812006582,0.04023317746746758,0.3097024652747317,0.00010000000000000002,0.0,0.0,0.0,0.00010000000000000002,0.0,0.0,0.0,0.0001,-0.4286673080978728,0.18184009084027378,9.809898500573032,0.0036000000000000003,5.293955920339377e-23,0.0,-5.293955920339377e-23,0.0036000000000000003,0.0,0.0,0.0,0.0036
1704351535.796212,1444448,1704351535,795921779,base_link,0.019327100097736218,0.17483659114376013,-0.8930504378871577,0.4141491820450667,0.25,0.0,0.0,0.0,0.25,0.0,0.0,0.0,0.25,-0.046235980620157005,0.020538104419035693,0.3839949391499637,0.00010000000000000002,0.0,0.0,0.0,0.00010000000000000002,0.0,0.0,0.0,0.0001,-0.3225837644574321,0.08605289132475606,9.892582993531056,0.0036000000000000003,5.293955920339377e-23,0.0,-5.293955920339377e-23,0.0036000000000000003,0.0,0.0,0.0,0.0036
1704351535.8601747,1444449,1704351535,859924520,base_link,0.019664424541770812,0.1785580618777867,-0.8863019853241512,0.42684788831193415,0.25,0.0,0.0,0.0,0.25,0.0,0.0,0.0,0.25,-0.03237394770672046,0.015611470307352002,0.40991405459061897,0.00010000000000000002,0.0,0.0,0.0,0.00010000000000000002,0.0,0.0,0.0,0.0001,-0.3781353614531244,0.04457371483453712,10.082731858408458,0.0036000000000000003,5.293955920339377e-23,0.0,-5.293955920339377e-23,0.0036000000000000003,0.0,0.0,0.0,0.0036
1704351535.908195,1444450,1704351535,907937376,base_link,0.02020365668586041,0.18181937442317103,-0.8814464822571646,0.4354143156320848,0.25,0.0,0.0,0.0,0.25,0.0,0.0,0.0,0.25,-0.030943036003565454,0.018574631626767237,0.3699891752401552,0.00010000000000000002,0.0,0.0,0.0,0.00010000000000000002,0.0,0.0,0.0,0.0001,-0.5030675236517481,-0.13026203361288138,9.791171226297305,0.0036000000000000003,5.293955920339377e-23,0.0,-5.293955920339377e-23,0.0036000000000000003,0.0,0.0,0.0,0.0036
1704351535.956223,1444451,1704351535,955930834,base_link,0.02115364966759156,0.18521441875095476,-0.8772014846126855,0.4424541756903046,0.25,0.0,0.0,0.0,0.25,0.0,0.0,0.0,0.25,-0.020412968406709642,0.04373924382889298,0.30204248161036407,0.00010000000000000002,0.0,0.0,0.0,0.00010000000000000002,0.0,0.0,0.0,0.0001,-0.6698527955393827,-0.12144656091507489,9.817109858877062,0.0036000000000000003,5.293955920339377e-23,0.0,-5.293955920339377e-23,0.0036000000000000003,0.0,0.0,0.0,0.0036
1704351536.020261,1444452,1704351536,19930176,base_link,0.022297653658997118,0.188941266436912,-0.8717567828988504,0.4514910009605571,0.25,0.0,0.0,0.0,0.25,0.0,0.0,0.0,0.25,-0.0054768680059627565,0.027410110350876905,0.28615739149831393,0.00010000000000000002,0.0,0.0,0.0,0.00010000000000000002,0.0,0.0,0.0,0.0001,-0.6954922788920503,-0.06177831378200303,9.933269756533617,0.0036000000000000003,5.293955920339377e-23,0.0,-5.293955920339377e-23,0.0036000000000000003,0.0,0.0,0.0,0.0036
1704351536.0682697,1444453,1704351536,67969921,base_link,0.022640271302543875,0.19050361791780712,-0.8674533531989225,0.4590429933018463,0.25,0.0,0.0,0.0,0.25,0.0,0.0,0.0,0.25,0.018114120947614862,-0.019328685633418368,0.3130398055947645,0.00010000000000000002,0.0,0.0,0.0,0.00010000000000000002,0.0,0.0,0.0,0.0001,-0.668292924595907,0.09071924825761124,10.132906312865394,0.0036000000000000003,5.293955920339377e-23,0.0,-5.293955920339377e-23,0.0036000000000000003,0.0,0.0,0.0,0.0036
1704351536.1321266,1444454,1704351536,131891560,base_link,0.021784285540196468,0.19297265002590014,-0.8622927622804865,0.46769455135181265,0.25,0.0,0.0,0.0,0.25,0.0,0.0,0.0,0.25,0.0066229563785971,-0.03682322704682835,0.2641196003198537,0.00010000000000000002,0.0,0.0,0.0,0.00010000000000000002,0.0,0.0,0.0,0.0001,-0.5428046950369498,-0.10020721890911335,9.725905161517318,0.0036000000000000003,5.293955920339377e-23,0.0,-5.293955920339377e-23,0.0036000000000000003,0.0,0.0,0.0,0.0036
1704351536.1801977,1444455,1704351536,179944187,base_link,0.020085484980116978,0.19410551066776133,-0.859117966421183,0.4731130349016522,0.25,0.0,0.0,0.0,0.25,0.0,0.0,0.0,0.25,0.006060938099841097,-0.05060201409767511,0.20939753216263718,0.00010000000000000002,0.0,0.0,0.0,0.00010000000000000002,0.0,0.0,0.0,0.0001,-0.20540384158483457,0.027142702036590062,9.990684935354667,0.0036000000000000003,5.293955920339377e-23,0.0,-5.293955920339377e-23,0.0036000000000000003,0.0,0.0,0.0,0.0036
1704351536.244187,1444456,1704351536,243897168,base_link,0.017660692135887085,0.1961206716577503,-0.8549101521985533,0.479951470223439,0.25,0.0,0.0,0.0,0.25,0.0,0.0,0.0,0.25,-0.005650200610411953,-0.03195077498848677,0.20307685221047037,0.00010000000000000002,0.0,0.0,0.0,0.00010000000000000002,0.0,0.0,0.0,0.0001,0.037182221834395776,-0.07977941158609221,9.859277257597709,0.0036000000000000003,5.293955920339377e-23,0.0,-5.293955920339377e-23,0.0036000000000000003,0.0,0.0,0.0,0.0036
1704351536.2921956,1444457,1704351536,291912272,base_link,0.01586255678127838,0.19726465401791338,-0.8518182742062079,0.4850161474589393,0.25,0.0,0.0,0.0,0.25,0.0,0.0,0.0,0.25,-0.015459263948308386,-0.0009783129915055984,0.2081338955149082,0.00010000000000000002,0.0,0.0,0.0,0.00010000000000000002,0.0,0.0,0.0,0.0001,0.36379040103335564,0.047685270204818275,9.804673524713847,0.0036000000000000003,5.293955920339377e-23,0.0,-5.293955920339377e-23,0.0036000000000000003,0.0,0.0,0.0,0.0036
1704351536.3402653,1444458,1704351536,339928693,base_link,0.015289625596420341,0.19857014872882067,-0.8485860461780811,0.49014063860772333,0.25,0.0,0.0,0.0,0.25,0.0,0.0,0.0,0.25,0.0013749989086966475,0.039852619139591094,0.22046541327116792,0.00010000000000000002,0.0,0.0,0.0,0.00010000000000000002,0.0,0.0,0.0,0.0001,0.38296718998856055,0.0604273013478463,9.92001741155753,0.0036000000000000003,5.293955920339377e-23,0.0,-5.293955920339377e-23,0.0036000000000000003,0.0,0.0,0.0,0.0036
1704351536.404256,1444459,1704351536,403907252,base_link,0.014080683226758704,0.20098036345141482,-0.84395158124311,0.49714621227970685,0.25,0.0,0.0,0.0,0.25,0.0,0.0,0.0,0.25,-0.015818123085693032,0.038929486386564995,0.2300566714237906,0.00010000000000000002,0.0,0.0,0.0,0.00010000000000000002,0.0,0.0,0.0,0.0001,0.39860596937598225,-0.14153601718192702,9.827004315099792,0.0036000000000000003,5.293955920339377e-23,0.0,-5.293955920339377e-23,0.0036000000000000003,0.0,0.0,0.0,0.0036
1704351536.4521925,1444460,1704351536,451910261,base_link,0.012570035503913828,0.20191419080310608,-0.8411397234166735,0.5015542039005148,0.25,0.0,0.0,0.0,0.25,0.0,0.0,0.0,0.25,-0.0010002504273969417,0.001206487890282993,0.17697512714281968,0.00010000000000000002,0.0,0.0,0.0,0.00010000000000000002,0.0,0.0,0.0,0.0001,0.33953175524411333,-0.02317791829071067,9.91058280411726,0.0036000000000000003,5.293955920339377e-23,0.0,-5.293955920339377e-23,0.0036000000000000003,0.0,0.0,0.0,0.0036
1704351536.5162075,1444461,1704351536,515913183,base_link,0.007837973734817564,0.20309332489283052,-0.8399979218685661,0.5030856376484999,0.25,0.0,0.0,0.0,0.25,0.0,0.0,0.0,0.25,-0.01977089713628273,-0.050886784677922646,0.005182530206645612,0.00010000000000000002,0.0,0.0,0.0,0.00010000000000000002,0.0,0.0,0.0,0.0001,0.48576868519465316,-0.056585551392314,10.041264036171384,0.0036000000000000003,5.293955920339377e-23,0.0,-5.293955920339377e-23,0.0036000000000000003,0.0,0.0,0.0,0.0036
1704351536.5642123,1444462,1704351536,563927469,base_link,0.004807609977794978,0.20400149659852929,-0.8404231468368075,0.5020450283916564,0.25,0.0,0.0,0.0,0.25,0.0,0.0,0.0,0.25,-0.00028823820406048884,-0.028003267017320633,-0.09882096981843196,0.00010000000000000002,0.0,0.0,0.0,0.00010000000000000002,0.0,0.0,0.0,0.0001,0.5240381794823311,-0.03892923905871661,9.916233962837996,0.0036000000000000003,5.293955920339377e-23,0.0,-5.293955920339377e-23,0.0036000000000000003,0.0,0.0,0.0,0.0036
1704351536.6281648,1444463,1704351536,627866311,base_link,0.002217738349175647,0.20531404234689082,-0.8396272347477847,0.5028591575397453,0.25,0.0,0.0,0.0,0.25,0.0,0.0,0.0,0.25,0.018772983036980592,-0.010943900125061367,-0.008903696538191478,0.00010000000000000002,0.0,0.0,0.0,0.00010000000000000002,0.0,0.0,0.0,0.0001,0.7477965383877225,-0.16632112742826471,9.775432602063319,0.0036000000000000003,5.293955920339377e-23,0.0,-5.293955920339377e-23,0.0036000000000000003,0.0,0.0,0.0,0.0036
1704351536.6761277,1444464,1704351536,675874107,base_link,0.0006277334787754689,0.2066499844124868,-0.8386565997462694,0.5039350132656236,0.25,0.0,0.0,0.0,0.25,0.0,0.0,0.0,0.25,0.00975154245160226,-0.0018194498463686357,0.013204877508913285,0.00010000000000000002,0.0,0.0,0.0,0.00010000000000000002,0.0,0.0,0.0,0.0001,0.7481339760620548,-0.09781006222464911,9.884590702694563,0.0036000000000000003,5.293955920339377e-23,0.0,-5.293955920339377e-23,0.0036000000000000003,0.0,0.0,0.0,0.0036
1704351536.7241297,1444465,1704351536,723883636,base_link,-0.0008025878785974849,0.20730360993900027,-0.838611771512186,0.5037408717189316,0.25,0.0,0.0,0.0,0.25,0.0,0.0,0.0,0.25,0.03271815994730307,-0.012757918519070315,-0.0587490839757958,0.00010000000000000002,0.0,0.0,0.0,0.00010000000000000002,0.0,0.0,0.0,0.0001,0.6137069101661143,0.18564388890734843,9.894471414020462,0.0036000000000000003,5.293955920339377e-23,0.0,-5.293955920339377e-23,0.0036000000000000003,0.0,0.0,0.0,0.0036
1704351536.7886066,1444466,1704351536,788152179,base_link,-0.0009619222866136267,0.2100690218857507,-0.8387187529155324,0.5024151015418354,0.25,0.0,0.0,0.0,0.25,0.0,0.0,0.0,0.25,0.01491569812179928,0.026842028722931798,-0.09118829187761601,0.00010000000000000002,0.0,0.0,0.0,0.00010000000000000002,0.0,0.0,0.0,0.0001,0.09201354049900876,0.10801951730568882,10.024063204945866,0.0036000000000000003,5.293955920339377e-23,0.0,-5.293955920339377e-23,0.0036000000000000003,0.0,0.0,0.0,0.0036
1704351536.8361297,1444467,1704351536,835874274,base_link,6.0162745690013546e-05,0.21278696306722464,-0.8378075632403985,0.5027923942406617,0.25,0.0,0.0,0.0,0.25,0.0,0.0,0.0,0.25,0.00506085862880049,0.07347233484454031,-0.01562078281713008,0.00010000000000000002,0.0,0.0,0.0,0.00010000000000000002,0.0,0.0,0.0,0.0001,-0.09737147434707483,0.16211354686287602,9.826401173128657,0.0036000000000000003,5.293955920339377e-23,0.0,-5.293955920339377e-23,0.0036000000000000003,0.0,0.0,0.0,0.0036
1704351536.90013,1444468,1704351536,899870221,base_link,0.0013424572095724592,0.21624354775499707,-0.8354091350252051,0.5053004086475801,0.25,0.0,0.0,0.0,0.25,0.0,0.0,0.0,0.25,-0.009589464936069068,0.06567226055358727,0.05207585559076214,0.00010000000000000002,0.0,0.0,0.0,0.00010000000000000002,0.0,0.0,0.0,0.0001,-0.23365968882400995,0.29712231105250664,9.853608925087762,0.0036000000000000003,5.293955920339377e-23,0.0,-5.293955920339377e-23,0.0036000000000000003,0.0,0.0,0.0,0.0036
1704351536.948318,1444469,1704351536,947899280,base_link,0.001576177781732196,0.21890501848099456,-0.8331150652867573,0.5079344411827947,0.25,0.0,0.0,0.0,0.25,0.0,0.0,0.0,0.25,-0.030827041229759575,0.029191892166549452,0.07829029479036122,0.00010000000000000002,0.0,0.0,0.0,0.00010000000000000002,0.0,0.0,0.0,0.0001,-0.4613689044539409,0.27476445544282463,9.821162894270659,0.0036000000000000003,5.293955920339377e-23,0.0,-5.293955920339377e-23,0.0036000000000000003,0.0,0.0,0.0,0.0036
1704351536.9961803,1444470,1704351536,995892772,base_link,0.0015083889211669629,0.22078988727131074,-0.8303420073312449,0.5116460703481491,0.25,0.0,0.0,0.0,0.25,0.0,0.0,0.0,0.25,-0.012596375999441434,-0.0069798864088162875,0.12199021330839072,0.00010000000000000002,0.0,0.0,0.0,0.00010000000000000002,0.0,0.0,0.0,0.0001,-0.5633967058815519,0.23453172903891437,10.00560765933939,0.0036000000000000003,5.293955920339377e-23,0.0,-5.293955920339377e-23,0.0036000000000000003,0.0,0.0,0.0,0.0036
1704351537.060171,1444471,1704351537,59896174,base_link,0.001830985788683489,0.22242075287614474,-0.8261156090507837,0.5177438137377436,0.25,0.0,0.0,0.0,0.25,0.0,0.0,0.0,0.25,0.01679796559260943,0.00347352863703099,0.1647434446379243,0.00010000000000000002,0.0,0.0,0.0,0.00010000000000000002,0.0,0.0,0.0,0.0001,-0.6729515512618073,0.08311878662509631,9.793379936203715,0.0036000000000000003,5.293955920339377e-23,0.0,-5.293955920339377e-23,0.0036000000000000003,0.0,0.0,0.0,0.0036
1704351537.1080875,1444472,1704351537,107854179,base_link,0.0015864152790208766,0.22427695195162287,-0.8226553901191747,0.5224322360055135,0.25,0.0,0.0,0.0,0.25,0.0,0.0,0.0,0.25,-0.028095184469013938,0.020238593128921654,0.17465320021216366,0.00010000000000000002,0.0,0.0,0.0,0.00010000000000000002,0.0,0.0,0.0,0.0001,-0.6279415054903332,0.05186707393558693,9.848813471261833,0.0036000000000000003,5.293955920339377e-23,0.0,-5.293955920339377e-23,0.0036000000000000003,0.0,0.0,0.0,0.0036
1704351537.172096,1444473,1704351537,171852565,base_link,0.0013556238135490999,0.22489525056852908,-0.8170051249522524,0.5309641366020392,0.25,0.0,0.0,0.0,0.25,0.0,0.0,0.0,0.25,-0.029689561727045507,0.0006930897742130716,0.2507811247106782,0.00010000000000000002,0.0,0.0,0.0,0.00010000000000000002,0.0,0.0,0.0,0.0001,-0.5994535677943182,0.4122787309018812,9.707160059460323,0.0036000000000000003,5.293955920339377e-23,0.0,-5.293955920339377e-23,0.0036000000000000003,0.0,0.0,0.0,0.0036
1704351537.2201927,1444474,1704351537,219866039,base_link,0.0010757227666328296,0.22524062695257036,-0.8122488703705562,0.5380680954789067,0.25,0.0,0.0,0.0,0.25,0.0,0.0,0.0,0.25,-0.024367022887024435,-0.01844811432122548,0.2815967614210668,0.00010000000000000002,0.0,0.0,0.0,0.00010000000000000002,0.0,0.0,0.0,0.0001,-0.7448907227842841,0.2952297491893444,10.02689923680587,0.0036000000000000003,5.293955920339377e-23,0.0,-5.293955920339377e-23,0.0036000000000000003,0.0,0.0,0.0,0.0036
1704351537.2682228,1444475,1704351537,267885377,base_link,0.0007460303342400248,0.2260242526118275,-0.8070349181314519,0.5455337950911621,0.25,0.0,0.0,0.0,0.25,0.0,0.0,0.0,0.25,-0.03570836760838676,-0.009267697534376909,0.30489259660896684,0.00010000000000000002,0.0,0.0,0.0,0.00010000000000000002,0.0,0.0,0.0,0.0001,-0.7584543973022764,0.12853324031682653,9.933574518186429,0.0036000000000000003,5.293955920339377e-23,0.0,-5.293955920339377e-23,0.0036000000000000003,0.0,0.0,0.0,0.0036
1704351537.3321455,1444476,1704351537,331865846,base_link,0.0004834125071461513,0.22611822583725483,-0.7999741090998249,0.5557982898736746,0.25,0.0,0.0,0.0,0.25,0.0,0.0,0.0,0.25,-0.017365238726086706,-0.007312979311754996,0.3212744994223713,0.00010000000000000002,0.0,0.0,0.0,0.00010000000000000002,0.0,0.0,0.0,0.0001,-0.6579879106738146,0.07045278626362547,9.831091662059912,0.0036000000000000003,5.293955920339377e-23,0.0,-5.293955920339377e-23,0.0036000000000000003,0.0,0.0,0.0,0.0036
1704351537.38018,1444477,1704351537,379870813,base_link,-0.0001739992471324963,0.2248294224112172,-0.7950869379427906,0.5632836422755921,0.25,0.0,0.0,0.0,0.25,0.0,0.0,0.0,0.25,0.008403732455902141,-0.03738533451580398,0.30635663612872427,0.00010000000000000002,0.0,0.0,0.0,0.00010000000000000002,0.0,0.0,0.0,0.0001,-0.6078785114975876,0.02402843749229948,10.003756731113926,0.0036000000000000003,5.293955920339377e-23,0.0,-5.293955920339377e-23,0.0036000000000000003,0.0,0.0,0.0,0.0036
1704351537.4441648,1444478,1704351537,443865490,base_link,-0.0012118983811316073,0.22298213625767183,-0.7888671511766397,0.5726832597577228,0.25,0.0,0.0,0.0,0.25,0.0,0.0,0.0,0.25,0.022649291889682996,-0.039956974249411144,0.285808384237459,0.00010000000000000002,0.0,0.0,0.0,0.00010000000000000002,0.0,0.0,0.0,0.0001,-0.5322467653008492,-0.07246394187624697,9.819987424293872,0.0036000000000000003,5.293955920339377e-23,0.0,-5.293955920339377e-23,0.0036000000000000003,0.0,0.0,0.0,0.0036
1704351537.492403,1444479,1704351537,491867580,base_link,-0.0011623533926084495,0.2215374404518864,-0.7840836186131396,0.5797695149239414,0.25,0.0,0.0,0.0,0.25,0.0,0.0,0.0,0.25,0.038036626505551965,-0.012799974162788394,0.296537394742034,0.00010000000000000002,0.0,0.0,0.0,0.00010000000000000002,0.0,0.0,0.0,0.0001,-0.49318341553809647,-0.006049075051275744,9.841976769053561,0.0036000000000000003,5.293955920339377e-23,0.0,-5.293955920339377e-23,0.0036000000000000003,0.0,0.0,0.0,0.0036
1704351537.5561137,1444480,1704351537,555839908,base_link,-0.000961875926315095,0.21956330159375068,-0.7771608788775519,0.5897558814714996,0.25,0.0,0.0,0.0,0.25,0.0,0.0,0.0,0.25,0.01849858140795625,-0.00460441282259966,0.32407954041952447,0.00010000000000000002,0.0,0.0,0.0,0.00010000000000000002,0.0,0.0,0.0,0.0001,-0.32278332254397857,0.18630309342913362,9.922357364498758,0.0036000000000000003,5.293955920339377e-23,0.0,-5.293955920339377e-23,0.0036000000000000003,0.0,0.0,0.0,0.0036
1704351537.6041892,1444481,1704351537,603865202,base_link,-0.0006740196180753707,0.21824554364899817,-0.7715620576779462,0.5975453284284644,0.25,0.0,0.0,0.0,0.25,0.0,0.0,0.0,0.25,0.005903415893015703,-0.010406293711733081,0.33628753743547496,0.00010000000000000002,0.0,0.0,0.0,0.00010000000000000002,0.0,0.0,0.0,0.0001,-0.326290182568056,0.4574966893535616,9.817444255942908,0.0036000000000000003,5.293955920339377e-23,0.0,-5.293955920339377e-23,0.0036000000000000003,0.0,0.0,0.0,0.0036
1704351537.6520948,1444482,1704351537,651847781,base_link,9.847161114756677e-05,0.2180529352442558,-0.7656896133637995,0.605121742892702,0.25,0.0,0.0,0.0,0.25,0.0,0.0,0.0,0.25,-0.010583822171922472,0.018555933761944643,0.33067392675272417,0.00010000000000000002,0.0,0.0,0.0,0.00010000000000000002,0.0,0.0,0.0,0.0001,-0.5164883292857907,0.4571010398149351,9.889188289511148,0.0036000000000000003,5.293955920339377e-23,0.0,-5.293955920339377e-23,0.0036000000000000003,0.0,0.0,0.0,0.0036
1704351537.716078,1444483,1704351537,715849025,base_link,0.0006794246383262361,0.21780577830988282,-0.7573059995884611,0.615668583171424,0.25,0.0,0.0,0.0,0.25,0.0,0.0,0.0,0.25,-0.008094544398903532,0.015954064090171728,0.3546416441941376,0.00010000000000000002,0.0,0.0,0.0,0.00010000000000000002,0.0,0.0,0.0,0.0001,-0.4411842143325543,0.18518927728469858,9.872158354871534,0.0036000000000000003,5.293955920339377e-23,0.0,-5.293955920339377e-23,0.0036000000000000003,0.0,0.0,0.0,0.0036
1704351537.7641194,1444484,1704351537,763853354,base_link,0.0010985557006351482,0.21730794134934703,-0.7508530392852648,0.6236952502608641,0.25,0.0,0.0,0.0,0.25,0.0,0.0,0.0,0.25,0.016628585510623163,0.0023417938368076995,0.3630116266051203,0.00010000000000000002,0.0,0.0,0.0,0.00010000000000000002,0.0,0.0,0.0,0.0001,-0.44617911883270345,-0.007808538374673045,9.983603333826773,0.0036000000000000003,5.293955920339377e-23,0.0,-5.293955920339377e-23,0.0036000000000000003,0.0,0.0,0.0,0.0036
1704351537.828118,1444485,1704351537,827843755,base_link,0.002798623613470713,0.21652500024273846,-0.7422290290908525,0.6341964682577493,0.25,0.0,0.0,0.0,0.25,0.0,0.0,0.0,0.25,0.04743487057013259,0.02443688246307288,0.3648955467602424,0.00010000000000000002,0.0,0.0,0.0,0.00010000000000000002,0.0,0.0,0.0,0.0001,-0.4051254047841938,-0.03784566710156508,9.815088050568017,0.0036000000000000003,5.293955920339377e-23,0.0,-5.293955920339377e-23,0.0036000000000000003,0.0,0.0,0.0,0.0036
1704351537.8760831,1444486,1704351537,875825300,base_link,0.004094491031098946,0.21708509784101931,-0.7364521688498092,0.6406992261857066,0.25,0.0,0.0,0.0,0.25,0.0,0.0,0.0,0.25,0.02594622798847248,0.05855394783286495,0.30034548207425193,0.00010000000000000002,0.0,0.0,0.0,0.00010000000000000002,0.0,0.0,0.0,0.0001,-0.41735396540324976,0.032906283430246715,10.037853848972766,0.0036000000000000003,5.293955920339377e-23,0.0,-5.293955920339377e-23,0.0036000000000000003,0.0,0.0,0.0,0.0036
1704351537.9240744,1444487,1704351537,923828308,base_link,0.00562287382169144,0.2179586777092769,-0.7302917409154833,0.6474074229199426,0.25,0.0,0.0,0.0,0.25,0.0,0.0,0.0,0.25,0.010857300604081428,0.06029530444908389,0.3100669854489363,0.00010000000000000002,0.0,0.0,0.0,0.00010000000000000002,0.0,0.0,0.0,0.0001,-0.421287528315882,0.3548845280787119,9.841610801914431,0.0036000000000000003,5.293955920339377e-23,0.0,-5.293955920339377e-23,0.0036000000000000003,0.0,0.0,0.0,0.0036
1704351537.9902937,1444488,1704351537,987839582,base_link,0.006492207172592097,0.2186844110033366,-0.7211358787418172,0.6573416341761862,0.25,0.0,0.0,0.0,0.25,0.0,0.0,0.0,0.25,-0.015715229031919256,0.015321682420084004,0.3392302971504989,0.00010000000000000002,0.0,0.0,0.0,0.00010000000000000002,0.0,0.0,0.0,0.0001,-0.4653281646113802,0.505897239331378,9.784590207878558,0.0036000000000000003,5.293955920339377e-23,0.0,-5.293955920339377e-23,0.0036000000000000003,0.0,0.0,0.0,0.0036
1704351538.0361192,1444489,1704351538,35835042,base_link,0.006739607772533271,0.2188065595596872,-0.7138503691230111,0.6652036663185692,0.25,0.0,0.0,0.0,0.25,0.0,0.0,0.0,0.25,-0.020738418776863176,-0.022459503118986736,0.3531671184775879,0.00010000000000000002,0.0,0.0,0.0,0.00010000000000000002,0.0,0.0,0.0,0.0001,-0.6019458384889488,0.6113287667857946,9.797311021466978,0.0036000000000000003,5.293955920339377e-23,0.0,-5.293955920339377e-23,0.0036000000000000003,0.0,0.0,0.0,0.0036
1704351538.100095,1444490,1704351538,99823086,base_link,0.006906062129824001,0.2210846525351752,-0.7043307328174437,0.6745310233992966,0.25,0.0,0.0,0.0,0.25,0.0,0.0,0.0,0.25,-0.04477346013807863,-5.151072509371612e-06,0.31496237487520634,0.00010000000000000002,0.0,0.0,0.0,0.00010000000000000002,0.0,0.0,0.0,0.0001,-0.9932810525241931,0.3070666497047576,10.152462333945659,0.0036000000000000003,5.293955920339377e-23,0.0,-5.293955920339377e-23,0.0036000000000000003,0.0,0.0,0.0,0.0036
1704351538.1481311,1444491,1704351538,147839705,base_link,0.007211121757834474,0.22348062662249427,-0.6982401833329558,0.6800478333371641,0.25,0.0,0.0,0.0,0.25,0.0,0.0,0.0,0.25,-0.036768165866902666,0.03275070142606049,0.24458701148931744,0.00010000000000000002,0.0,0.0,0.0,0.00010000000000000002,0.0,0.0,0.0,0.0001,-1.077795116470792,0.030236500967838864,9.806565669993551,0.0036000000000000003,5.293955920339377e-23,0.0,-5.293955920339377e-23,0.0036000000000000003,0.0,0.0,0.0,0.0036
1704351538.2120953,1444492,1704351538,211840059,base_link,0.00834079822510955,0.2262867870739771,-0.692106656164973,0.6853561829974575,0.25,0.0,0.0,0.0,0.25,0.0,0.0,0.0,0.25,0.011063853711377192,0.03324745343349051,0.15860377641609882,0.00010000000000000002,0.0,0.0,0.0,0.00010000000000000002,0.0,0.0,0.0,0.0001,-1.4172370152546838,-0.14599068150995825,9.933992787944744,0.0036000000000000003,5.293955920339377e-23,0.0,-5.293955920339377e-23,0.0036000000000000003,0.0,0.0,0.0,0.0036
1704351538.2601116,1444493,1704351538,259842292,base_link,0.008718645162279565,0.22764841968224334,-0.6876023269650825,0.6894223830098027,0.25,0.0,0.0,0.0,0.25,0.0,0.0,0.0,0.25,0.018051144816134273,-0.0008856635574434011,0.15266557633073782,0.00010000000000000002,0.0,0.0,0.0,0.00010000000000000002,0.0,0.0,0.0,0.0001,-1.5196710803019615,-0.14713490318699468,9.92661611282624,0.0036000000000000003,5.293955920339377e-23,0.0,-5.293955920339377e-23,0.0036000000000000003,0.0,0.0,0.0,0.0036
1704351538.3081138,1444494,1704351538,307853239,base_link,0.008927252548937146,0.228832005374634,-0.6822232372239451,0.6943541402410095,0.25,0.0,0.0,0.0,0.25,0.0,0.0,0.0,0.25,-0.0014681396085861728,-0.024876834745640307,0.19466775462097705,0.00010000000000000002,0.0,0.0,0.0,0.00010000000000000002,0.0,0.0,0.0,0.0001,-1.5941184262536592,0.04632043998777424,9.741350546060909,0.0036000000000000003,5.293955920339377e-23,0.0,-5.293955920339377e-23,0.0036000000000000003,0.0,0.0,0.0,0.0036
1704351538.3720427,1444495,1704351538,371803343,base_link,0.009225738730784179,0.23089788075323245,-0.6763059611810622,0.6994364168954148,0.25,0.0,0.0,0.0,0.25,0.0,0.0,0.0,0.25,-0.010795788964655448,-0.012720553884478753,0.13134791223341347,0.00010000000000000002,0.0,0.0,0.0,0.00010000000000000002,0.0,0.0,0.0,0.0001,-1.6289043397661986,0.24049413918162724,9.908074569099412,0.0036000000000000003,5.293955920339377e-23,0.0,-5.293955920339377e-23,0.0036000000000000003,0.0,0.0,0.0,0.0036
1704351538.4200702,1444496,1704351538,419813844,base_link,0.009386633087264088,0.23318556340382182,-0.6744707930819901,0.7004466670765723,0.25,0.0,0.0,0.0,0.25,0.0,0.0,0.0,0.25,-0.011541530483737919,0.031643069522192833,-0.026522421296099132,0.00010000000000000002,0.0,0.0,0.0,0.00010000000000000002,0.0,0.0,0.0,0.0001,-1.6964431996405682,0.29487817451228693,9.819416418426645,0.0036000000000000003,5.293955920339377e-23,0.0,-5.293955920339377e-23,0.0036000000000000003,0.0,0.0,0.0,0.0036
1704351538.484068,1444497,1704351538,483813014,base_link,0.009223711802341703,0.23645182546306484,-0.6741844833108493,0.6996290015705857,0.25,0.0,0.0,0.0,0.25,0.0,0.0,0.0,0.25,0.0048902184149478434,0.041097556145026595,-0.1185713719366231,0.00010000000000000002,0.0,0.0,0.0,0.00010000000000000002,0.0,0.0,0.0,0.0001,-1.7250780889139237,0.07064127016115102,9.90954288947652,0.0036000000000000003,5.293955920339377e-23,0.0,-5.293955920339377e-23,0.0036000000000000003,0.0,0.0,0.0,0.0036
1704351538.5321045,1444498,1704351538,531813838,base_link,0.008655202977895463,0.23878964485884543,-0.6740985659579973,0.6989246857444437,0.25,0.0,0.0,0.0,0.25,0.0,0.0,0.0,0.25,0.009046403168052206,0.023217431436599552,-0.12496652053077124,0.00010000000000000002,0.0,0.0,0.0,0.00010000000000000002,0.0,0.0,0.0,0.0001,-1.7255741158270896,-0.16412697872159618,9.807355257523538,0.0036000000000000003,5.293955920339377e-23,0.0,-5.293955920339377e-23,0.0036000000000000003,0.0,0.0,0.0,0.0036
1704351538.5800824,1444499,1704351538,579807847,base_link,0.007944896470073015,0.24019768125511204,-0.6734225993261711,0.699102249500408,0.25,0.0,0.0,0.0,0.25,0.0,0.0,0.0,0.25,0.02410383625053975,-0.01782227260881451,-0.08397283973345301,0.00010000000000000002,0.0,0.0,0.0,0.00010000000000000002,0.0,0.0,0.0,0.0001,-1.7107080425327008,-0.14269550226868008,9.978596522315724,0.0036000000000000003,5.293955920339377e-23,0.0,-5.293955920339377e-23,0.0036000000000000003,0.0,0.0,0.0,0.0036
1704351538.6442468,1444500,1704351538,643830845,base_link,0.006742215308473747,0.24068796441955903,-0.6714359798991361,0.7008548859879554,0.25,0.0,0.0,0.0,0.25,0.0,0.0,0.0,0.25,0.029053406723009358,-0.05613155504044237,-0.03047712396870433,0.00010000000000000002,0.0,0.0,0.0,0.00010000000000000002,0.0,0.0,0.0,0.0001,-1.4134337259295486,0.04233520873386971,9.988280362804124,0.0036000000000000003,5.293955920339377e-23,0.0,-5.293955920339377e-23,0.0036000000000000003,0.0,0.0,0.0,0.0036
1704351538.6920764,1444501,1704351538,691834521,base_link,0.005213685769603855,0.24013402990607,-0.6697833600964023,0.7026369729097238,0.25,0.0,0.0,0.0,0.25,0.0,0.0,0.0,0.25,0.023178586973308577,-0.08257229356699383,-0.014505429106361578,0.00010000000000000002,0.0,0.0,0.0,0.00010000000000000002,0.0,0.0,0.0,0.0001,-0.8568261022662728,0.29110528284411746,9.923583926065165,0.0036000000000000003,5.293955920339377e-23,0.0,-5.293955920339377e-23,0.0036000000000000003,0.0,0.0,0.0,0.0036
1704351538.756094,1444502,1704351538,755821798,base_link,0.003472503815676196,0.24139717793631374,-0.667703297349309,0.7041929074554032,0.25,0.0,0.0,0.0,0.25,0.0,0.0,0.0,0.25,-0.00993287734229393,-0.020579534548295673,-0.02935438518739736,0.00010000000000000002,0.0,0.0,0.0,0.00010000000000000002,0.0,0.0,0.0,0.0001,-0.5226646416539644,0.3127835361815782,9.805924374833017,0.0036000000000000003,5.293955920339377e-23,0.0,-5.293955920339377e-23,0.0036000000000000003,0.0,0.0,0.0,0.0036
1704351538.8041253,1444503,1704351538,803786906,base_link,0.0035922765113172808,0.24389218367799562,-0.6650777677894966,0.705815316554115,0.25,0.0,0.0,0.0,0.25,0.0,0.0,0.0,0.25,-0.025521197779898863,0.05014196774264668,0.02631591812069871,0.00010000000000000002,0.0,0.0,0.0,0.00010000000000000002,0.0,0.0,0.0,0.0001,-0.38160787840305455,0.4048986538013007,9.488873990191637,0.0036000000000000003,5.293955920339377e-23,0.0,-5.293955920339377e-23,0.0036000000000000003,0.0,0.0,0.0,0.0036
1704351538.8680508,1444504,1704351538,867781613,base_link,0.004309295705468781,0.24665838948053134,-0.6598371532244062,0.7097577052023493,0.25,0.0,0.0,0.0,0.25,0.0,0.0,0.0,0.25,-0.015442367326902965,0.04197986085794495,0.10747684257243474,0.00010000000000000002,0.0,0.0,0.0,0.00010000000000000002,0.0,0.0,0.0,0.0001,-0.27171355009594145,0.37063156746285525,10.075014125812825,0.0036000000000000003,5.293955920339377e-23,0.0,-5.293955920339377e-23,0.0036000000000000003,0.0,0.0,0.0,0.0036
1704351538.9160435,1444505,1704351538,915787045,base_link,0.0035353644695601417,0.24758922402200784,-0.654917926042609,0.7139815036079683,0.25,0.0,0.0,0.0,0.25,0.0,0.0,0.0,0.25,-0.022894194850839107,-0.03833339627361774,0.16133644601062913,0.00010000000000000002,0.0,0.0,0.0,0.00010000000000000002,0.0,0.0,0.0,0.0001,-0.2910181713626711,0.045674573761579025,9.854722381458407,0.0036000000000000003,5.293955920339377e-23,0.0,-5.293955920339377e-23,0.0036000000000000003,0.0,0.0,0.0,0.0036
1704351538.980066,1444506,1704351538,979782818,base_link,0.003168546273676051,0.24803534837563196,-0.6478402267766117,0.7202579168886093,0.25,0.0,0.0,0.0,0.25,0.0,0.0,0.0,0.25,0.0037856807131010344,-0.05279523464908991,0.1867546042054837,0.00010000000000000002,0.0,0.0,0.0,0.00010000000000000002,0.0,0.0,0.0,0.0001,-0.533443148506131,-0.004181188443348296,9.745719155457941,0.0036000000000000003,5.293955920339377e-23,0.0,-5.293955920339377e-23,0.0036000000000000003,0.0,0.0,0.0,0.0036
1704351539.0280874,1444507,1704351539,27803320,base_link,0.0036736294644457916,0.24856433916382695,-0.6430399522795879,0.7243630950806876,0.25,0.0,0.0,0.0,0.25,0.0,0.0,0.0,0.25,0.024229980848527042,-0.01369123643204975,0.16295489893934073,0.00010000000000000002,0.0,0.0,0.0,0.00010000000000000002,0.0,0.0,0.0,0.0001,-0.5213352045300302,0.040777623508606094,10.117769456814067,0.0036000000000000003,5.293955920339377e-23,0.0,-5.293955920339377e-23,0.0036000000000000003,0.0,0.0,0.0,0.0036
1704351539.0760727,1444508,1704351539,75810503,base_link,0.0043600947937441166,0.24907739932076903,-0.6378308948399788,0.7287751287664965,0.25,0.0,0.0,0.0,0.25,0.0,0.0,0.0,0.25,0.023617528494071234,0.004657033968247332,0.19031102281468915,0.00010000000000000002,0.0,0.0,0.0,0.00010000000000000002,0.0,0.0,0.0,0.0001,-0.3241061999386266,0.027935754705494406,9.853194195499041,0.0036000000000000003,5.293955920339377e-23,0.0,-5.293955920339377e-23,0.0036000000000000003,0.0,0.0,0.0,0.0036
1704351539.1401184,1444509,1704351539,139799045,base_link,0.005613830677158932,0.24994621921222476,-0.6294953719606826,0.7356840008364492,0.25,0.0,0.0,0.0,0.25,0.0,0.0,0.0,0.25,0.006524778647393353,0.015407299917391502,0.24421022412934165,0.00010000000000000002,0.0,0.0,0.0,0.00010000000000000002,0.0,0.0,0.0,0.0001,-0.32813936790118264,0.11472915168975757,9.777491423888108,0.0036000000000000003,5.293955920339377e-23,0.0,-5.293955920339377e-23,0.0036000000000000003,0.0,0.0,0.0,0.0036
1704351539.1880877,1444510,1704351539,187796475,base_link,0.006439218347572341,0.2509900471000002,-0.6223550479204636,0.7413748896824935,0.25,0.0,0.0,0.0,0.25,0.0,0.0,0.0,0.25,-0.02745980249292501,0.025947800409598706,0.2824344920314649,0.00010000000000000002,0.0,0.0,0.0,0.00010000000000000002,0.0,0.0,0.0,0.0001,-0.35315750527619794,0.24648318202151387,9.963363864992099,0.0036000000000000003,5.293955920339377e-23,0.0,-5.293955920339377e-23,0.0036000000000000003,0.0,0.0,0.0,0.0036
1704351539.252101,1444511,1704351539,251805358,base_link,0.007296270257833354,0.25138120069470543,-0.6124577747532644,0.7494329393093774,0.25,0.0,0.0,0.0,0.25,0.0,0.0,0.0,0.25,-0.02200672682693802,0.004544948626398607,0.299473296817251,0.00010000000000000002,0.0,0.0,0.0,0.00010000000000000002,0.0,0.0,0.0,0.0001,-0.28750574448735655,0.3639629274368493,9.993124324717336,0.0036000000000000003,5.293955920339377e-23,0.0,-5.293955920339377e-23,0.0036000000000000003,0.0,0.0,0.0,0.0036
1704351539.300072,1444512,1704351539,299805844,base_link,0.008808154996588533,0.2522372803647976,-0.6050950516226,0.755088570501216,0.25,0.0,0.0,0.0,0.25,0.0,0.0,0.0,0.25,0.0041885799692099,0.03474095236104256,0.29184766793094535,0.00010000000000000002,0.0,0.0,0.0,0.00010000000000000002,0.0,0.0,0.0,0.0001,-0.5527429263269699,0.14501140263398518,9.997816075312638,0.0036000000000000003,5.293955920339377e-23,0.0,-5.293955920339377e-23,0.0036000000000000003,0.0,0.0,0.0,0.0036
1704351539.3482134,1444513,1704351539,347817487,base_link,0.01066182228878707,0.25424467752498225,-0.5973773143067144,0.7605171358012895,0.25,0.0,0.0,0.0,0.25,0.0,0.0,0.0,0.25,0.001646650593129806,0.07100692933741923,0.2997691407248452,0.00010000000000000002,0.0,0.0,0.0,0.00010000000000000002,0.0,0.0,0.0,0.0001,-0.8269658216981007,-0.20938030317746428,9.610747744904875,0.0036000000000000003,5.293955920339377e-23,0.0,-5.293955920339377e-23,0.0036000000000000003,0.0,0.0,0.0,0.0036
1704351539.4120696,1444514,1704351539,411749171,base_link,0.014367139589004688,0.2554283659098181,-0.5849911403545859,0.7696332249164607,0.25,0.0,0.0,0.0,0.25,0.0,0.0,0.0,0.25,0.029404434565875336,0.052063613302390226,0.3920644504109583,0.00010000000000000002,0.0,0.0,0.0,0.00010000000000000002,0.0,0.0,0.0,0.0001,-1.0320093813676738,-0.1068906942920272,9.99648019088459,0.0036000000000000003,5.293955920339377e-23,0.0,-5.293955920339377e-23,0.0036000000000000003,0.0,0.0,0.0,0.0036
1704351539.4600537,1444515,1704351539,459770273,base_link,0.01680736277525384,0.2571160711432722,-0.5737653047698488,0.777433092657337,0.25,0.0,0.0,0.0,0.25,0.0,0.0,0.0,0.25,-0.01937098886969167,0.05132961208544166,0.4670614968420843,0.00010000000000000002,0.0,0.0,0.0,0.00010000000000000002,0.0,0.0,0.0,0.0001,-1.239224655800804,-0.0467876288091236,9.606354489217695,0.0036000000000000003,5.293955920339377e-23,0.0,-5.293955920339377e-23,0.0036000000000000003,0.0,0.0,0.0,0.0036
1704351539.5240219,1444516,1704351539,523777531,base_link,0.021332807153316046,0.25816105919728777,-0.5569097662374687,0.7891446579192067,0.25,0.0,0.0,0.0,0.25,0.0,0.0,0.0,0.25,-0.0005640473182977599,0.0335147119058207,0.5389157801603215,0.00010000000000000002,0.0,0.0,0.0,0.00010000000000000002,0.0,0.0,0.0,0.0001,-1.3476394318736382,0.2572718625500231,10.022442717592607,0.0036000000000000003,5.293955920339377e-23,0.0,-5.293955920339377e-23,0.0036000000000000003,0.0,0.0,0.0,0.0036
1704351539.572012,1444517,1704351539,571767358,base_link,0.02379528977437067,0.2596565766798641,-0.544737674780326,0.7970402198423687,0.25,0.0,0.0,0.0,0.25,0.0,0.0,0.0,0.25,-0.02251637412251993,0.031662899640385475,0.49119852474979947,0.00010000000000000002,0.0,0.0,0.0,0.00010000000000000002,0.0,0.0,0.0,0.0001,-1.636803076355189,0.043800924828603545,9.851589807858288,0.0036000000000000003,5.293955920339377e-23,0.0,-5.293955920339377e-23,0.0036000000000000003,0.0,0.0,0.0,0.0036
1704351539.6200573,1444518,1704351539,619776349,base_link,0.026794649703300796,0.2607661853996121,-0.5323289323786721,0.8049279166807396,0.25,0.0,0.0,0.0,0.25,0.0,0.0,0.0,0.25,-0.002700785819692536,0.03120408027393047,0.500782409275154,0.00010000000000000002,0.0,0.0,0.0,0.00010000000000000002,0.0,0.0,0.0,0.0001,-1.7579250048987922,0.19351648031970362,9.969617900150396,0.0036000000000000003,5.293955920339377e-23,0.0,-5.293955920339377e-23,0.0036000000000000003,0.0,0.0,0.0,0.0036
1704351539.6840267,1444519,1704351539,683771388,base_link,0.030646277140924615,0.26259353099591193,-0.5138898206755915,0.8161021353865636,0.25,0.0,0.0,0.0,0.25,0.0,0.0,0.0,0.25,-0.0027864088351691133,0.029010379135750476,0.564834695863895,0.00010000000000000002,0.0,0.0,0.0,0.00010000000000000002,0.0,0.0,0.0,0.0001,-1.7408177889090177,-0.19500428927296617,9.836379910263858,0.0036000000000000003,5.293955920339377e-23,0.0,-5.293955920339377e-23,0.0036000000000000003,0.0,0.0,0.0,0.0036
1704351539.7320752,1444520,1704351539,731775689,base_link,0.03203302070071196,0.26475287394186875,-0.49948065763531185,0.8242565583436418,0.25,0.0,0.0,0.0,0.25,0.0,0.0,0.0,0.25,-0.0681977292825265,0.04028565296775764,0.5702778642368808,0.00010000000000000002,0.0,0.0,0.0,0.00010000000000000002,0.0,0.0,0.0,0.0001,-1.487115376602324,-0.3112595602995093,9.862864959729581,0.0036000000000000003,5.293955920339377e-23,0.0,-5.293955920339377e-23,0.0036000000000000003,0.0,0.0,0.0,0.0036
1704351539.7960877,1444521,1704351539,795760738,base_link,0.03511353127153682,0.2643203397159302,-0.48043211364545513,0.8355158778337239,0.25,0.0,0.0,0.0,0.25,0.0,0.0,0.0,0.25,-0.0025241822893254887,-0.007044763775031387,0.5843010052728019,0.00010000000000000002,0.0,0.0,0.0,0.00010000000000000002,0.0,0.0,0.0,0.0001,-1.1695466841145825,0.01579262027264023,10.378077320893839,0.0036000000000000003,5.293955920339377e-23,0.0,-5.293955920339377e-23,0.0036000000000000003,0.0,0.0,0.0,0.0036
1704351539.8440256,1444522,1704351539,843761779,base_link,0.03551705178250581,0.2642682738866298,-0.46736626758588323,0.8428935818788162,0.25,0.0,0.0,0.0,0.25,0.0,0.0,0.0,0.25,-0.032107954124577925,-0.016383163670442815,0.5173143479264708,0.00010000000000000002,0.0,0.0,0.0,0.00010000000000000002,0.0,0.0,0.0,0.0001,-0.8753095659407266,-0.5547041038821695,9.533998833284146,0.0036000000000000003,5.293955920339377e-23,0.0,-5.293955920339377e-23,0.0036000000000000003,0.0,0.0,0.0,0.0036
1704351539.9079993,1444523,1704351539,907741300,base_link,0.03900812396242326,0.2634683837229607,-0.45073048681932193,0.852000472590808,0.25,0.0,0.0,0.0,0.25,0.0,0.0,0.0,0.25,0.0502988563169155,0.008697004225519932,0.4993132431702982,0.00010000000000000002,0.0,0.0,0.0,0.00010000000000000002,0.0,0.0,0.0,0.0001,-0.7478667033582004,-0.25978857743626826,10.29072555538903,0.0036000000000000003,5.293955920339377e-23,0.0,-5.293955920339377e-23,0.0036000000000000003,0.0,0.0,0.0,0.0036
1704351539.9560146,1444524,1704351539,955774926,base_link,0.04152611238109089,0.2634150135764237,-0.4380495401386109,0.8584874565172149,0.25,0.0,0.0,0.0,0.25,0.0,0.0,0.0,0.25,0.0508654575016657,0.022102999838404983,0.5007366694834319,0.00010000000000000002,0.0,0.0,0.0,0.00010000000000000002,0.0,0.0,0.0,0.0001,-0.8272948471150803,-0.5131827270419261,9.201225670034669,0.0036000000000000003,5.293955920339377e-23,0.0,-5.293955920339377e-23,0.0036000000000000003,0.0,0.0,0.0,0.0036
1704351540.0041046,1444525,1704351540,3783031,base_link,0.04244868915194522,0.2634283969723136,-0.4249592513057207,0.8649931925671784,0.25,0.0,0.0,0.0,0.25,0.0,0.0,0.0,0.25,-0.030699144293288513,0.010019006700056204,0.49291070430412504,0.00010000000000000002,0.0,0.0,0.0,0.00010000000000000002,0.0,0.0,0.0,0.0001,-0.6119321168156583,-0.09998531242047032,10.158542730141026,0.0036000000000000003,5.293955920339377e-23,0.0,-5.293955920339377e-23,0.0036000000000000003,0.0,0.0,0.0,0.0036
1704351540.068001,1444526,1704351540,67744026,base_link,0.04538560300558267,0.2620017442204457,-0.4058896593381786,0.8743848223223004,0.25,0.0,0.0,0.0,0.25,0.0,0.0,0.0,0.25,0.007697616544292628,-0.013944350620274961,0.5507579587110359,0.00010000000000000002,0.0,0.0,0.0,0.00010000000000000002,0.0,0.0,0.0,0.0001,-0.5665682826420376,0.260016491108461,10.145163812885057,0.0036000000000000003,5.293955920339377e-23,0.0,-5.293955920339377e-23,0.0036000000000000003,0.0,0.0,0.0,0.0036
1704351540.1160407,1444527,1704351540,115767616,base_link,0.04572304815830848,0.2607879444445766,-0.3914217533807234,0.8812990762958086,0.25,0.0,0.0,0.0,0.25,0.0,0.0,0.0,0.25,-0.041089931737802524,-0.051684070781471934,0.5394259419566397,0.00010000000000000002,0.0,0.0,0.0,0.00010000000000000002,0.0,0.0,0.0,0.0001,-0.6434000366357637,-0.13213613517626033,9.480040982478215,0.0036000000000000003,5.293955920339377e-23,0.0,-5.293955920339377e-23,0.0036000000000000003,0.0,0.0,0.0,0.0036
1704351540.1640303,1444528,1704351540,163758140,base_link,0.04517452658600599,0.25918146408513987,-0.378082943164974,0.8876021174547326,0.25,0.0,0.0,0.0,0.25,0.0,0.0,0.0,0.25,-0.05100859890666832,-0.07300967444146678,0.4799254304345213,0.00010000000000000002,0.0,0.0,0.0,0.00010000000000000002,0.0,0.0,0.0,0.0001,-0.6731244442754379,-0.21056184967060057,9.97399511165974,0.0036000000000000003,5.293955920339377e-23,0.0,-5.293955920339377e-23,0.0036000000000000003,0.0,0.0,0.0,0.0036
1704351540.2280073,1444529,1704351540,227736167,base_link,0.04581287395051209,0.2567794132921196,-0.3607306978793001,0.8954545645074697,0.25,0.0,0.0,0.0,0.25,0.0,0.0,0.0,0.25,-0.00661012489165531,-0.058235022109348666,0.4700401426527971,0.00010000000000000002,0.0,0.0,0.0,0.00010000000000000002,0.0,0.0,0.0,0.0001,-0.5810247372473857,-0.2126556111640178,9.999505883673937,0.0036000000000000003,5.293955920339377e-23,0.0,-5.293955920339377e-23,0.0036000000000000003,0.0,0.0,0.0,0.0036
1704351540.2759855,1444530,1704351540,275734884,base_link,0.04660057642639195,0.2567949149672836,-0.34812763833367033,0.9003843098099249,0.25,0.0,0.0,0.0,0.25,0.0,0.0,0.0,0.25,-0.005121126277230406,0.032798252981831845,0.4506891148295769,0.00010000000000000002,0.0,0.0,0.0,0.00010000000000000002,0.0,0.0,0.0,0.0001,-0.3094371892043292,-0.5876582990377532,10.038621726605234,0.0036000000000000003,5.293955920339377e-23,0.0,-5.293955920339377e-23,0.0036000000000000003,0.0,0.0,0.0,0.0036
1704351540.3406215,1444531,1704351540,339741765,base_link,0.0490863063000395,0.2583909327260912,-0.3294355484289442,0.9068058666826545,0.25,0.0,0.0,0.0,0.25,0.0,0.0,0.0,0.25,-0.014607240815483348,0.10439211235677782,0.5014432394101436,0.00010000000000000002,0.0,0.0,0.0,0.00010000000000000002,0.0,0.0,0.0,0.0001,-0.1567286439296573,-0.101321992899641,10.076018329239536,0.0036000000000000003,5.293955920339377e-23,0.0,-5.293955920339377e-23,0.0036000000000000003,0.0,0.0,0.0,0.0036
1704351540.3880198,1444532,1704351540,387719102,base_link,0.05043316405236619,0.25787558526650806,-0.31458119595439665,0.912137790928007,0.25,0.0,0.0,0.0,0.25,0.0,0.0,0.0,0.25,-0.020717470026657494,0.03872560191173612,0.5425734654699772,0.00010000000000000002,0.0,0.0,0.0,0.00010000000000000002,0.0,0.0,0.0,0.0001,-0.04934158873032878,-0.11881136045025197,9.832361176801102,0.0036000000000000003,5.293955920339377e-23,0.0,-5.293955920339377e-23,0.0036000000000000003,0.0,0.0,0.0,0.0036
1704351540.4519494,1444533,1704351540,451707414,base_link,0.04990515430998248,0.25495682567995864,-0.29461935779979664,0.9196227088443019,0.25,0.0,0.0,0.0,0.25,0.0,0.0,0.0,0.25,-0.05262791635165233,-0.0572394116072669,0.5358876328428469,0.00010000000000000002,0.0,0.0,0.0,0.00010000000000000002,0.0,0.0,0.0,0.0001,-0.3026039538690532,-0.3852502370063813,9.568483131935974,0.0036000000000000003,5.293955920339377e-23,0.0,-5.293955920339377e-23,0.0036000000000000003,0.0,0.0,0.0,0.0036
1704351540.4999435,1444534,1704351540,499707425,base_link,0.051404906864725014,0.2527436275288406,-0.28008547531093525,0.9246784959182511,0.25,0.0,0.0,0.0,0.25,0.0,0.0,0.0,0.25,0.024015187248989347,-0.04406537516450716,0.5183699916930645,0.00010000000000000002,0.0,0.0,0.0,0.00010000000000000002,0.0,0.0,0.0,0.0001,-0.6868850143922605,-0.22543124647631488,10.012952260478947,0.0036000000000000003,5.293955920339377e-23,0.0,-5.293955920339377e-23,0.0036000000000000003,0.0,0.0,0.0,0.0036
1704351540.547997,1444535,1704351540,547723899,base_link,0.05400709923359495,0.25221428068466856,-0.2666748486035475,0.9286310973542524,0.25,0.0,0.0,0.0,0.25,0.0,0.0,0.0,0.25,0.07483773496105389,0.03639216091898519,0.47406134945124856,0.00010000000000000002,0.0,0.0,0.0,0.00010000000000000002,0.0,0.0,0.0,0.0001,-0.9283650408023233,-0.4595946565630711,10.065985930387775,0.0036000000000000003,5.293955920339377e-23,0.0,-5.293955920339377e-23,0.0036000000000000003,0.0,0.0,0.0,0.0036
1704351540.6120605,1444536,1704351540,611753226,base_link,0.056209586332475636,0.25069299044444104,-0.2489425126565923,0.9338207174498634,0.25,0.0,0.0,0.0,0.25,0.0,0.0,0.0,0.25,0.04866094687887423,0.011732423892089817,0.4654469887207374,0.00010000000000000002,0.0,0.0,0.0,0.00010000000000000002,0.0,0.0,0.0,0.0001,-0.5835113283820441,-0.5361118948057216,9.536003023348105,0.0036000000000000003,5.293955920339377e-23,0.0,-5.293955920339377e-23,0.0036000000000000003,0.0,0.0,0.0,0.0036
1704351540.6599858,1444537,1704351540,659724816,base_link,0.05681731434817449,0.2490254938265642,-0.23488235575842953,0.9378637295300779,0.25,0.0,0.0,0.0,0.25,0.0,0.0,0.0,0.25,-0.019698397333712692,-0.01144875679803028,0.47156433632367667,0.00010000000000000002,0.0,0.0,0.0,0.00010000000000000002,0.0,0.0,0.0,0.0001,-0.29417981906034146,0.0460122019093001,10.445220688344882,0.0036000000000000003,5.293955920339377e-23,0.0,-5.293955920339377e-23,0.0036000000000000003,0.0,0.0,0.0,0.0036
1704351540.7240005,1444538,1704351540,723731203,base_link,0.058312081155788065,0.24757880369933916,-0.21437514970806656,0.9430523486730357,0.25,0.0,0.0,0.0,0.25,0.0,0.0,0.0,0.25,-0.019982854589656405,0.022201485858318798,0.5211820900671065,0.00010000000000000002,0.0,0.0,0.0,0.00010000000000000002,0.0,0.0,0.0,0.0001,-0.3990805744713534,0.12625695453057673,9.602853637507346,0.0036000000000000003,5.293955920339377e-23,0.0,-5.293955920339377e-23,0.0036000000000000003,0.0,0.0,0.0,0.0036
1704351540.771996,1444539,1704351540,771730598,base_link,0.057821638397690354,0.24819874492557797,-0.19948630670556616,0.946181406807039,0.25,0.0,0.0,0.0,0.25,0.0,0.0,0.0,0.25,-0.08432627146371562,0.0893521215509379,0.4812909329939458,0.00010000000000000002,0.0,0.0,0.0,0.00010000000000000002,0.0,0.0,0.0,0.0001,-0.2702162935568784,-0.053249929709085424,9.74700856833271,0.0036000000000000003,5.293955920339377e-23,0.0,-5.293955920339377e-23,0.0036000000000000003,0.0,0.0,0.0,0.0036
1704351540.8200076,1444540,1704351540,819746012,base_link,0.05887264854087902,0.2475201240680592,-0.18568259099111364,0.9490994546610705,0.25,0.0,0.0,0.0,0.25,0.0,0.0,0.0,0.25,-0.0012593166523499572,0.05939013623867939,0.45934745100758806,0.00010000000000000002,0.0,0.0,0.0,0.00010000000000000002,0.0,0.0,0.0,0.0001,-0.15965793428107078,-0.10459030758097952,10.104550878377088,0.0036000000000000003,5.293955920339377e-23,0.0,-5.293955920339377e-23,0.0036000000000000003,0.0,0.0,0.0,0.0036
1704351540.8839417,1444541,1704351540,883691501,base_link,0.0583624593091162,0.24360829350442234,-0.16801262970072942,0.9534257070901226,0.25,0.0,0.0,0.0,0.25,0.0,0.0,0.0,0.25,-0.013127329697170754,-0.054373315964091264,0.4397260457546976,0.00010000000000000002,0.0,0.0,0.0,0.00010000000000000002,0.0,0.0,0.0,0.0001,-0.3291430297240231,-0.6003578478079771,9.55736461411091,0.0036000000000000003,5.293955920339377e-23,0.0,-5.293955920339377e-23,0.0036000000000000003,0.0,0.0,0.0,0.0036
1704351540.9319818,1444542,1704351540,931691971,base_link,0.059078584553148836,0.2403394263977387,-0.15513111892472112,0.9563895738176813,0.25,0.0,0.0,0.0,0.25,0.0,0.0,0.0,0.25,0.03187048602589578,-0.06187117052818362,0.4233404145157671,0.00010000000000000002,0.0,0.0,0.0,0.00010000000000000002,0.0,0.0,0.0,0.0001,-0.5318487707077104,-0.39758204390580043,10.18500680899243,0.0036000000000000003,5.293955920339377e-23,0.0,-5.293955920339377e-23,0.0036000000000000003,0.0,0.0,0.0,0.0036
1704351540.9959974,1444543,1704351540,995704175,base_link,0.061045395942786164,0.23644942471519906,-0.13849317416562318,0.9597837099553056,0.25,0.0,0.0,0.0,0.25,0.0,0.0,0.0,0.25,0.06755450995989881,-0.04002592079025573,0.4106167296442364,0.00010000000000000002,0.0,0.0,0.0,0.00010000000000000002,0.0,0.0,0.0,0.0001,-0.5070379899950654,-0.4071515344492185,10.141074456107214,0.0036000000000000003,5.293955920339377e-23,0.0,-5.293955920339377e-23,0.0036000000000000003,0.0,0.0,0.0,0.0036
1704351541.043969,1444544,1704351541,43703041,base_link,0.06081760760668931,0.23600635591904676,-0.12642262120230935,0.9615713907033363,0.25,0.0,0.0,0.0,0.25,0.0,0.0,0.0,0.25,0.0012921511373430406,0.04938603115895102,0.36963187889040744,0.00010000000000000002,0.0,0.0,0.0,0.00010000000000000002,0.0,0.0,0.0,0.0001,-0.5600515988741205,-0.49643471927403837,9.007798615538322,0.0036000000000000003,5.293955920339377e-23,0.0,-5.293955920339377e-23,0.0036000000000000003,0.0,0.0,0.0,0.0036
1704351541.1079326,1444545,1704351541,107700872,base_link,0.06200593255081932,0.23571111286576513,-0.10999063646007023,0.9635858007936784,0.25,0.0,0.0,0.0,0.25,0.0,0.0,0.0,0.25,0.011831045381957141,0.08222649293654152,0.3705580264489961,0.00010000000000000002,0.0,0.0,0.0,0.00010000000000000002,0.0,0.0,0.0,0.0001,-0.29349028544244793,0.12951817645548866,10.403890426595039,0.0036000000000000003,5.293955920339377e-23,0.0,-5.293955920339377e-23,0.0036000000000000003,0.0,0.0,0.0,0.0036
1704351541.1561222,1444546,1704351541,155707648,base_link,0.060140176753631945,0.23236615463230725,-0.09804233215824286,0.9658037225163348,0.25,0.0,0.0,0.0,0.25,0.0,0.0,0.0,0.25,-0.08531813213576307,-0.049796549095833274,0.34554821407303477,0.00010000000000000002,0.0,0.0,0.0,0.00010000000000000002,0.0,0.0,0.0,0.0001,0.0771747460560427,0.11759078512739136,10.130267127092555,0.0036000000000000003,5.293955920339377e-23,0.0,-5.293955920339377e-23,0.0036000000000000003,0.0,0.0,0.0,0.0036
1704351541.2040212,1444547,1704351541,203718695,base_link,0.058848921017808184,0.22821774024424682,-0.08762749935928604,0.9678713183522318,0.25,0.0,0.0,0.0,0.25,0.0,0.0,0.0,0.25,-0.045620720068412654,-0.09561251782051439,0.2772699069532583,0.00010000000000000002,0.0,0.0,0.0,0.00010000000000000002,0.0,0.0,0.0,0.0001,-0.2349088363222325,0.23049897381135606,9.88442879351932,0.0036000000000000003,5.293955920339377e-23,0.0,-5.293955920339377e-23,0.0036000000000000003,0.0,0.0,0.0,0.0036
1704351541.2679675,1444548,1704351541,267711674,base_link,0.055451328314494515,0.22717354571127776,-0.07590215682312133,0.9693070684291549,0.25,0.0,0.0,0.0,0.25,0.0,0.0,0.0,0.25,-0.06099804786061866,0.015819955498390204,0.19311153643798923,0.00010000000000000002,0.0,0.0,0.0,0.00010000000000000002,0.0,0.0,0.0,0.0001,-0.8007532412391318,-0.28077175510093927,9.762503826858474,0.0036000000000000003,5.293955920339377e-23,0.0,-5.293955920339377e-23,0.0036000000000000003,0.0,0.0,0.0,0.0036
1704351541.3159654,1444549,1704351541,315721404,base_link,0.05482814333582513,0.2280351892047228,-0.06716195418933282,0.9697850788149827,0.25,0.0,0.0,0.0,0.25,0.0,0.0,0.0,0.25,0.014182214463196452,0.08263440307528973,0.19749819551702688,0.00010000000000000002,0.0,0.0,0.0,0.00010000000000000002,0.0,0.0,0.0,0.0001,-0.9103616764307644,-0.37376191997282726,10.117211719604322,0.0036000000000000003,5.293955920339377e-23,0.0,-5.293955920339377e-23,0.0036000000000000003,0.0,0.0,0.0,0.0036
1704351541.3799298,1444550,1704351541,379673233,base_link,0.054952218157468126,0.2296404529734971,-0.057926130761999976,0.9699948863023169,0.25,0.0,0.0,0.0,0.25,0.0,0.0,0.0,0.25,0.07254267887126334,0.0909405228603491,0.1370074874121033,0.00010000000000000002,0.0,0.0,0.0,0.00010000000000000002,0.0,0.0,0.0,0.0001,-1.153048503204587,-0.5374899512491447,9.63256311463065,0.0036000000000000003,5.293955920339377e-23,0.0,-5.293955920339377e-23,0.0036000000000000003,0.0,0.0,0.0,0.0036
1704351541.427975,1444551,1704351541,427676867,base_link,0.05420776651495718,0.23031483355323726,-0.050953941499367106,0.9702681543472834,0.25,0.0,0.0,0.0,0.25,0.0,0.0,0.0,0.25,0.0346292845189538,0.062037165013445195,0.12568921922683468,0.00010000000000000002,0.0,0.0,0.0,0.00010000000000000002,0.0,0.0,0.0,0.0001,-1.4605743090537404,-0.3385012938097386,10.113209236827114,0.0036000000000000003,5.293955920339377e-23,0.0,-5.293955920339377e-23,0.0036000000000000003,0.0,0.0,0.0,0.0036
1704351541.4760206,1444552,1704351541,475711554,base_link,0.053485913168473356,0.23086268792543438,-0.0444800481598525,0.9704963687371916,0.25,0.0,0.0,0.0,0.25,0.0,0.0,0.0,0.25,0.01409370644901206,0.047574972268149,0.083702570494702,0.00010000000000000002,0.0,0.0,0.0,0.00010000000000000002,0.0,0.0,0.0,0.0001,-1.4984552103178592,0.182230271741918,9.568860664726564,0.0036000000000000003,5.293955920339377e-23,0.0,-5.293955920339377e-23,0.0036000000000000003,0.0,0.0,0.0,0.0036
1704351541.5401113,1444553,1704351541,539677424,base_link,0.05181526119878442,0.22823237047518563,-0.038049581625385256,0.9714820601083235,0.25,0.0,0.0,0.0,0.25,0.0,0.0,0.0,0.25,0.00760237136007747,-0.04170624300265651,0.020920449459549847,0.00010000000000000002,0.0,0.0,0.0,0.00010000000000000002,0.0,0.0,0.0,0.0001,-1.1606644089427463,0.20350205501059201,9.711976389317998,0.0036000000000000003,5.293955920339377e-23,0.0,-5.293955920339377e-23,0.0036000000000000003,0.0,0.0,0.0,0.0036
1704351541.5879495,1444554,1704351541,587687389,base_link,0.050152058926100127,0.22403627323154787,-0.03510562231564811,0.9726562160104788,0.25,0.0,0.0,0.0,0.25,0.0,0.0,0.0,0.25,0.002109152189557716,-0.1273051504687922,-0.054938707989516083,0.00010000000000000002,0.0,0.0,0.0,0.00010000000000000002,0.0,0.0,0.0,0.0001,-0.9527143651075229,0.3219538377642416,10.192144497085351,0.0036000000000000003,5.293955920339377e-23,0.0,-5.293955920339377e-23,0.0036000000000000003,0.0,0.0,0.0,0.0036
1704351541.6519504,1444555,1704351541,651693393,base_link,0.04703303040871082,0.22032035866708408,-0.03188452072591963,0.9737711286259514,0.25,0.0,0.0,0.0,0.25,0.0,0.0,0.0,0.25,-0.005438325398421023,-0.07794158731268028,-0.08060682881980984,0.00010000000000000002,0.0,0.0,0.0,0.00010000000000000002,0.0,0.0,0.0,0.0001,-1.0374663745667116,-0.00990307744959513,9.901404382776303,0.0036000000000000003,5.293955920339377e-23,0.0,-5.293955920339377e-23,0.0036000000000000003,0.0,0.0,0.0,0.0036
1704351541.6999779,1444556,1704351541,699698025,base_link,0.0436644843381664,0.21961396879662576,-0.02946828271376205,0.9741636093751289,0.25,0.0,0.0,0.0,0.25,0.0,0.0,0.0,0.25,-0.05001558051614405,0.026075415863778872,-0.0891351028680842,0.00010000000000000002,0.0,0.0,0.0,0.00010000000000000002,0.0,0.0,0.0,0.0001,-0.6277070301285813,-0.14193958501546206,9.759752692908382,0.0036000000000000003,5.293955920339377e-23,0.0,-5.293955920339377e-23,0.0036000000000000003,0.0,0.0,0.0,0.0036
1704351541.7639594,1444557,1704351541,763689456,base_link,0.04252865409199567,0.220287959225684,-0.027027068546450893,0.9741324684903444,0.25,0.0,0.0,0.0,0.25,0.0,0.0,0.0,0.25,0.03231270523992117,0.09723470058154084,-0.09866634835001763,0.00010000000000000002,0.0,0.0,0.0,0.00010000000000000002,0.0,0.0,0.0,0.0001,-0.32166598187827955,0.21348293919916472,9.845285165669072,0.0036000000000000003,5.293955920339377e-23,0.0,-5.293955920339377e-23,0.0036000000000000003,0.0,0.0,0.0,0.0036
1704351541.8119307,1444558,1704351541,811665156,base_link,0.039474659607435174,0.21848515607835223,-0.02641098319495484,0.9746837680955659,0.25,0.0,0.0,0.0,0.25,0.0,0.0,0.0,0.25,-0.03493283087910231,0.010810856430504947,-0.1470939104351558,0.00010000000000000002,0.0,0.0,0.0,0.00010000000000000002,0.0,0.0,0.0,0.0001,-0.08614511065883122,-0.032272408001382355,10.052586597969837,0.0036000000000000003,5.293955920339377e-23,0.0,-5.293955920339377e-23,0.0036000000000000003,0.0,0.0,0.0,0.0036
1704351541.8599472,1444559,1704351541,859704191,base_link,0.03757766784882572,0.21468758552592943,-0.027233890095831045,0.975579558380729,0.25,0.0,0.0,0.0,0.25,0.0,0.0,0.0,0.25,0.0014540196142101963,-0.08050658971354151,-0.2088360712258212,0.00010000000000000002,0.0,0.0,0.0,0.00010000000000000002,0.0,0.0,0.0,0.0001,-0.1996874756671764,0.45975670422588744,9.813416576680677,0.0036000000000000003,5.293955920339377e-23,0.0,-5.293955920339377e-23,0.0036000000000000003,0.0,0.0,0.0,0.0036
1704351541.9238992,1444560,1704351541,923649296,base_link,0.033041659625255695,0.20938378091486576,-0.029723795717637683,0.9768230018724684,0.25,0.0,0.0,0.0,0.25,0.0,0.0,0.0,0.25,-0.026768158160814643,-0.10146809530021188,-0.26017008248899576,0.00010000000000000002,0.0,0.0,0.0,0.00010000000000000002,0.0,0.0,0.0,0.0001,-0.37131282566231755,-0.033738107318992676,10.26169883309126,0.0036000000000000003,5.293955920339377e-23,0.0,-5.293955920339377e-23,0.0036000000000000003,0.0,0.0,0.0,0.0036
1704351541.9719493,1444561,1704351541,971656565,base_link,0.03173237518704641,0.20737521520058344,-0.030461789236381084,0.9772720480408813,0.25,0.0,0.0,0.0,0.25,0.0,0.0,0.0,0.25,0.03243548530806996,-0.023643245736309087,-0.21179717346285307,0.00010000000000000002,0.0,0.0,0.0,0.00010000000000000002,0.0,0.0,0.0,0.0001,-0.6532386654066509,0.18292985160609176,9.785643498977082,0.0036000000000000003,5.293955920339377e-23,0.0,-5.293955920339377e-23,0.0036000000000000003,0.0,0.0,0.0,0.0036
